LabVIEW Measurement,
Writer_Version,2
Reader_Version,2
Separator,Comma
Decimal_Separator,.
Multi_Headings,Yes
X_Columns,Multi
Time_Pref,Relative
Operator,daq
Description,Transducer signal file .LVM (ASCII)
Date,2022/06/23
Time,18:01:19.3878006935119628906
***End_of_Header***,
,
Channels,1,
Samples,8000,
Date,1904/01/01,
Time,00:00:00,
X_Dimension,Time,
X0,0.0000000000000000E+0,
Delta_X,1.000000E-8,
***End_of_Header***,,
X_Value,Untitled,Comment
0.000000,0.000000
1.000000E-8,0.000000
2.000000E-8,0.000000
3.000000E-8,0.000000
4.000000E-8,0.000000
5.000000E-8,0.000000
6.000000E-8,0.000000
7.000000E-8,0.000000
8.000000E-8,0.000000
9.000000E-8,0.000000
1.000000E-7,0.000000
1.100000E-7,0.000000
1.200000E-7,0.000000
1.300000E-7,0.000000
1.400000E-7,0.000000
1.500000E-7,0.000000
1.600000E-7,0.000000
1.700000E-7,0.000000
1.800000E-7,0.000000
1.900000E-7,0.000000
2.000000E-7,0.000000
2.100000E-7,0.000000
2.200000E-7,0.000000
2.300000E-7,0.000000
2.400000E-7,0.000000
2.500000E-7,0.000000
2.600000E-7,0.000000
2.700000E-7,0.000000
2.800000E-7,0.000000
2.900000E-7,0.000000
3.000000E-7,0.000000
3.100000E-7,0.000000
3.200000E-7,0.000000
3.300000E-7,0.000000
3.400000E-7,0.000000
3.500000E-7,0.000000
3.600000E-7,0.000000
3.700000E-7,0.000000
3.800000E-7,0.000000
3.900000E-7,0.000000
4.000000E-7,0.000000
4.100000E-7,0.000000
4.200000E-7,0.000000
4.300000E-7,0.000000
4.400000E-7,0.000000
4.500000E-7,0.000000
4.600000E-7,0.000000
4.700000E-7,0.000000
4.800000E-7,0.000000
4.900000E-7,0.000000
5.000000E-7,0.000000
5.100000E-7,0.000000
5.200000E-7,0.000000
5.300000E-7,0.000000
5.400000E-7,0.000000
5.500000E-7,0.000000
5.600000E-7,0.000000
5.700000E-7,0.000000
5.800000E-7,0.000000
5.900000E-7,0.000000
6.000000E-7,0.000000
6.100000E-7,0.000000
6.200000E-7,0.000000
6.300000E-7,0.000000
6.400000E-7,0.000000
6.500000E-7,0.000000
6.600000E-7,0.000000
6.700000E-7,0.000000
6.800000E-7,0.000000
6.900000E-7,0.000000
7.000000E-7,0.000000
7.100000E-7,0.000000
7.200000E-7,0.000000
7.300000E-7,0.000000
7.400000E-7,0.000000
7.500000E-7,0.000000
7.600000E-7,0.000000
7.700000E-7,0.000000
7.800000E-7,0.000000
7.900000E-7,0.000000
8.000000E-7,0.000000
8.100000E-7,0.000000
8.200000E-7,0.000000
8.300000E-7,0.000000
8.400000E-7,0.000000
8.500000E-7,0.000000
8.600000E-7,0.000000
8.700000E-7,0.000000
8.800000E-7,0.000000
8.900000E-7,0.000000
9.000000E-7,0.000000
9.100000E-7,0.000000
9.200000E-7,0.000000
9.300000E-7,0.000000
9.400000E-7,0.000000
9.500000E-7,0.000000
9.600000E-7,0.000000
9.700000E-7,0.000000
9.800000E-7,0.000000
9.900000E-7,0.000000
1.000000E-6,0.000000
1.010000E-6,0.000000
1.020000E-6,0.000000
1.030000E-6,0.000000
1.040000E-6,0.000000
1.050000E-6,0.000000
1.060000E-6,0.000000
1.070000E-6,0.000000
1.080000E-6,0.000000
1.090000E-6,0.000000
1.100000E-6,0.000000
1.110000E-6,0.000000
1.120000E-6,0.000000
1.130000E-6,0.000000
1.140000E-6,0.000000
1.150000E-6,0.000000
1.160000E-6,0.000000
1.170000E-6,0.000000
1.180000E-6,0.000000
1.190000E-6,0.000000
1.200000E-6,0.000000
1.210000E-6,0.000000
1.220000E-6,0.000000
1.230000E-6,0.000000
1.240000E-6,0.000000
1.250000E-6,0.000000
1.260000E-6,0.000000
1.270000E-6,0.000000
1.280000E-6,0.000000
1.290000E-6,0.000000
1.300000E-6,0.000000
1.310000E-6,0.000000
1.320000E-6,0.000000
1.330000E-6,0.000000
1.340000E-6,0.000000
1.350000E-6,0.000000
1.360000E-6,0.000000
1.370000E-6,0.000000
1.380000E-6,0.000000
1.390000E-6,0.000000
1.400000E-6,0.000000
1.410000E-6,0.000000
1.420000E-6,0.000000
1.430000E-6,0.000000
1.440000E-6,0.000000
1.450000E-6,0.000000
1.460000E-6,0.000000
1.470000E-6,0.000000
1.480000E-6,0.000000
1.490000E-6,0.000000
1.500000E-6,0.000000
1.510000E-6,0.000000
1.520000E-6,0.000000
1.530000E-6,0.000000
1.540000E-6,0.000000
1.550000E-6,0.000000
1.560000E-6,0.000000
1.570000E-6,0.000000
1.580000E-6,0.000000
1.590000E-6,0.000000
1.600000E-6,0.000000
1.610000E-6,0.000000
1.620000E-6,0.000000
1.630000E-6,0.000000
1.640000E-6,0.000000
1.650000E-6,0.000000
1.660000E-6,0.000000
1.670000E-6,0.000000
1.680000E-6,0.000000
1.690000E-6,0.000000
1.700000E-6,0.000000
1.710000E-6,0.000000
1.720000E-6,0.000000
1.730000E-6,0.000000
1.740000E-6,0.000000
1.750000E-6,0.000000
1.760000E-6,0.000000
1.770000E-6,0.000000
1.780000E-6,0.000000
1.790000E-6,0.000000
1.800000E-6,0.000000
1.810000E-6,0.000000
1.820000E-6,0.000000
1.830000E-6,0.000000
1.840000E-6,0.000000
1.850000E-6,0.000000
1.860000E-6,0.000000
1.870000E-6,0.000000
1.880000E-6,0.000000
1.890000E-6,0.000000
1.900000E-6,0.000000
1.910000E-6,0.000000
1.920000E-6,0.000000
1.930000E-6,0.000000
1.940000E-6,0.000000
1.950000E-6,0.000000
1.960000E-6,0.000000
1.970000E-6,0.000000
1.980000E-6,0.000000
1.990000E-6,0.000000
2.000000E-6,0.000875
2.010000E-6,0.000827
2.020000E-6,0.000780
2.030000E-6,0.000719
2.040000E-6,0.000688
2.050000E-6,0.000714
2.060000E-6,0.000730
2.070000E-6,0.000788
2.080000E-6,0.000778
2.090000E-6,0.000682
2.100000E-6,0.000638
2.110000E-6,0.000524
2.120000E-6,0.000398
2.130000E-6,0.000377
2.140000E-6,0.000370
2.150000E-6,0.000384
2.160000E-6,0.000390
2.170000E-6,0.000345
2.180000E-6,0.000194
2.190000E-6,7.000948E-5
2.200000E-6,4.312901E-5
2.210000E-6,-3.276155E-5
2.220000E-6,-0.000170
2.230000E-6,-0.000309
2.240000E-6,-0.000414
2.250000E-6,-0.000486
2.260000E-6,-0.000497
2.270000E-6,-0.000443
2.280000E-6,-0.000454
2.290000E-6,-0.000515
2.300000E-6,-0.000493
2.310000E-6,-0.000444
2.320000E-6,-0.000452
2.330000E-6,-0.000445
2.340000E-6,-0.000367
2.350000E-6,-0.000312
2.360000E-6,-0.000330
2.370000E-6,-0.000390
2.380000E-6,-0.000411
2.390000E-6,-0.000331
2.400000E-6,-0.000303
2.410000E-6,-0.000319
2.420000E-6,-0.000326
2.430000E-6,-0.000318
2.440000E-6,-0.000346
2.450000E-6,-0.000380
2.460000E-6,-0.000390
2.470000E-6,-0.000470
2.480000E-6,-0.000533
2.490000E-6,-0.000592
2.500000E-6,-0.000577
2.510000E-6,-0.000526
2.520000E-6,-0.000541
2.530000E-6,-0.000553
2.540000E-6,-0.000558
2.550000E-6,-0.000504
2.560000E-6,-0.000437
2.570000E-6,-0.000415
2.580000E-6,-0.000407
2.590000E-6,-0.000471
2.600000E-6,-0.000538
2.610000E-6,-0.000531
2.620000E-6,-0.000487
2.630000E-6,-0.000409
2.640000E-6,-0.000304
2.650000E-6,-0.000260
2.660000E-6,-0.000281
2.670000E-6,-0.000358
2.680000E-6,-0.000361
2.690000E-6,-0.000313
2.700000E-6,-0.000316
2.710000E-6,-0.000275
2.720000E-6,-0.000200
2.730000E-6,-0.000185
2.740000E-6,-0.000170
2.750000E-6,-0.000155
2.760000E-6,-0.000197
2.770000E-6,-0.000231
2.780000E-6,-0.000313
2.790000E-6,-0.000427
2.800000E-6,-0.000493
2.810000E-6,-0.000542
2.820000E-6,-0.000531
2.830000E-6,-0.000455
2.840000E-6,-0.000346
2.850000E-6,-0.000262
2.860000E-6,-0.000259
2.870000E-6,-0.000270
2.880000E-6,-0.000302
2.890000E-6,-0.000346
2.900000E-6,-0.000309
2.910000E-6,-0.000331
2.920000E-6,-0.000430
2.930000E-6,-0.000445
2.940000E-6,-0.000417
2.950000E-6,-0.000446
2.960000E-6,-0.000417
2.970000E-6,-0.000309
2.980000E-6,-0.000255
2.990000E-6,-0.000181
3.000000E-6,-0.000167
3.010000E-6,-0.000274
3.020000E-6,-0.000391
3.030000E-6,-0.000417
3.040000E-6,-0.000392
3.050000E-6,-0.000396
3.060000E-6,-0.000434
3.070000E-6,-0.000450
3.080000E-6,-0.000485
3.090000E-6,-0.000582
3.100000E-6,-0.000640
3.110000E-6,-0.000615
3.120000E-6,-0.000612
3.130000E-6,-0.000651
3.140000E-6,-0.000624
3.150000E-6,-0.000575
3.160000E-6,-0.000562
3.170000E-6,-0.000571
3.180000E-6,-0.000542
3.190000E-6,-0.000514
3.200000E-6,-0.000551
3.210000E-6,-0.000585
3.220000E-6,-0.000567
3.230000E-6,-0.000563
3.240000E-6,-0.000573
3.250000E-6,-0.000560
3.260000E-6,-0.000568
3.270000E-6,-0.000446
3.280000E-6,-0.000271
3.290000E-6,-0.000217
3.300000E-6,-0.000235
3.310000E-6,-0.000217
3.320000E-6,-0.000263
3.330000E-6,-0.000350
3.340000E-6,-0.000290
3.350000E-6,-0.000275
3.360000E-6,-0.000325
3.370000E-6,-0.000357
3.380000E-6,-0.000360
3.390000E-6,-0.000390
3.400000E-6,-0.000433
3.410000E-6,-0.000381
3.420000E-6,-0.000380
3.430000E-6,-0.000386
3.440000E-6,-0.000362
3.450000E-6,-0.000382
3.460000E-6,-0.000314
3.470000E-6,-0.000242
3.480000E-6,-0.000214
3.490000E-6,-0.000245
3.500000E-6,-0.000302
3.510000E-6,-0.000257
3.520000E-6,-0.000206
3.530000E-6,-0.000178
3.540000E-6,-0.000172
3.550000E-6,-0.000223
3.560000E-6,-0.000229
3.570000E-6,-0.000206
3.580000E-6,-0.000184
3.590000E-6,-0.000162
3.600000E-6,-0.000198
3.610000E-6,-0.000232
3.620000E-6,-0.000179
3.630000E-6,-8.453062E-5
3.640000E-6,-4.358028E-5
3.650000E-6,-4.077808E-6
3.660000E-6,3.396916E-5
3.670000E-6,-6.499045E-5
3.680000E-6,-0.000160
3.690000E-6,-0.000152
3.700000E-6,-0.000172
3.710000E-6,-0.000212
3.720000E-6,-0.000201
3.730000E-6,-0.000154
3.740000E-6,-0.000131
3.750000E-6,-0.000157
3.760000E-6,-0.000169
3.770000E-6,-0.000158
3.780000E-6,-0.000154
3.790000E-6,-0.000179
3.800000E-6,-0.000181
3.810000E-6,-0.000183
3.820000E-6,-0.000206
3.830000E-6,-0.000192
3.840000E-6,-0.000129
3.850000E-6,-1.724359E-5
3.860000E-6,4.011353E-5
3.870000E-6,3.821393E-5
3.880000E-6,4.345939E-5
3.890000E-6,7.697938E-5
3.900000E-6,0.000102
3.910000E-6,0.000112
3.920000E-6,0.000135
3.930000E-6,0.000179
3.940000E-6,0.000164
3.950000E-6,0.000156
3.960000E-6,0.000134
3.970000E-6,7.673242E-5
3.980000E-6,5.732472E-5
3.990000E-6,1.714438E-5
4.000000E-6,-2.157562E-5
4.010000E-6,-2.315932E-5
4.020000E-6,6.095946E-5
4.030000E-6,0.000120
4.040000E-6,0.000142
4.050000E-6,0.000234
4.060000E-6,0.000322
4.070000E-6,0.000299
4.080000E-6,0.000269
4.090000E-6,0.000298
4.100000E-6,0.000317
4.110000E-6,0.000307
4.120000E-6,0.000276
4.130000E-6,0.000237
4.140000E-6,0.000186
4.150000E-6,0.000179
4.160000E-6,0.000237
4.170000E-6,0.000263
4.180000E-6,0.000252
4.190000E-6,0.000270
4.200000E-6,0.000237
4.210000E-6,0.000204
4.220000E-6,0.000237
4.230000E-6,0.000283
4.240000E-6,0.000290
4.250000E-6,0.000290
4.260000E-6,0.000246
4.270000E-6,0.000161
4.280000E-6,7.923392E-5
4.290000E-6,-7.145292E-6
4.300000E-6,-2.611090E-5
4.310000E-6,1.273778E-5
4.320000E-6,7.325107E-6
4.330000E-6,-4.070261E-5
4.340000E-6,-7.262194E-5
4.350000E-6,-0.000103
4.360000E-6,-0.000147
4.370000E-6,-0.000146
4.380000E-6,-0.000123
4.390000E-6,-0.000130
4.400000E-6,-0.000129
4.410000E-6,-0.000142
4.420000E-6,-0.000133
4.430000E-6,-0.000174
4.440000E-6,-0.000299
4.450000E-6,-0.000376
4.460000E-6,-0.000435
4.470000E-6,-0.000441
4.480000E-6,-0.000383
4.490000E-6,-0.000368
4.500000E-6,-0.000418
4.510000E-6,-0.000459
4.520000E-6,-0.000497
4.530000E-6,-0.000461
4.540000E-6,-0.000398
4.550000E-6,-0.000407
4.560000E-6,-0.000395
4.570000E-6,-0.000353
4.580000E-6,-0.000299
4.590000E-6,-0.000324
4.600000E-6,-0.000326
4.610000E-6,-0.000243
4.620000E-6,-0.000240
4.630000E-6,-0.000245
4.640000E-6,-0.000191
4.650000E-6,-0.000204
4.660000E-6,-0.000194
4.670000E-6,-9.214024E-5
4.680000E-6,-2.206278E-5
4.690000E-6,-4.728639E-5
4.700000E-6,-5.010128E-5
4.710000E-6,-5.986836E-5
4.720000E-6,-9.058320E-5
4.730000E-6,-9.861902E-5
4.740000E-6,-0.000163
4.750000E-6,-0.000125
4.760000E-6,-3.168311E-5
4.770000E-6,-3.411519E-5
4.780000E-6,4.206958E-5
4.790000E-6,0.000172
4.800000E-6,0.000191
4.810000E-6,0.000201
4.820000E-6,0.000282
4.830000E-6,0.000359
4.840000E-6,0.000369
4.850000E-6,0.000328
4.860000E-6,0.000323
4.870000E-6,0.000354
4.880000E-6,0.000405
4.890000E-6,0.000474
4.900000E-6,0.000469
4.910000E-6,0.000385
4.920000E-6,0.000296
4.930000E-6,0.000246
4.940000E-6,0.000219
4.950000E-6,0.000192
4.960000E-6,0.000187
4.970000E-6,0.000168
4.980000E-6,0.000171
4.990000E-6,0.000224
5.000000E-6,0.000238
5.010000E-6,0.000209
5.020000E-6,0.000138
5.030000E-6,4.010861E-5
5.040000E-6,-3.949080E-5
5.050000E-6,-1.939386E-6
5.060000E-6,0.000106
5.070000E-6,0.000123
5.080000E-6,4.748498E-5
5.090000E-6,1.005246E-5
5.100000E-6,-1.887642E-5
5.110000E-6,-7.524150E-5
5.120000E-6,-7.233213E-5
5.130000E-6,-9.082032E-5
5.140000E-6,-0.000166
5.150000E-6,-0.000252
5.160000E-6,-0.000284
5.170000E-6,-0.000265
5.180000E-6,-0.000267
5.190000E-6,-0.000327
5.200000E-6,-0.000404
5.210000E-6,-0.000479
5.220000E-6,-0.000543
5.230000E-6,-0.000503
5.240000E-6,-0.000450
5.250000E-6,-0.000441
5.260000E-6,-0.000439
5.270000E-6,-0.000351
5.280000E-6,-0.000280
5.290000E-6,-0.000318
5.300000E-6,-0.000296
5.310000E-6,-0.000233
5.320000E-6,-0.000164
5.330000E-6,-9.783267E-5
5.340000E-6,-6.226516E-5
5.350000E-6,-3.505135E-5
5.360000E-6,-1.656287E-6
5.370000E-6,-5.164464E-6
5.380000E-6,-3.707081E-5
5.390000E-6,-3.206898E-5
5.400000E-6,1.560145E-5
5.410000E-6,6.861760E-5
5.420000E-6,6.249350E-5
5.430000E-6,4.223118E-5
5.440000E-6,8.685921E-5
5.450000E-6,0.000101
5.460000E-6,0.000108
5.470000E-6,0.000114
5.480000E-6,9.800535E-5
5.490000E-6,0.000118
5.500000E-6,8.788112E-5
5.510000E-6,0.000123
5.520000E-6,0.000170
5.530000E-6,0.000173
5.540000E-6,0.000254
5.550000E-6,0.000310
5.560000E-6,0.000306
5.570000E-6,0.000181
5.580000E-6,0.000131
5.590000E-6,0.000147
5.600000E-6,8.432509E-5
5.610000E-6,0.000102
5.620000E-6,0.000162
5.630000E-6,0.000162
5.640000E-6,0.000219
5.650000E-6,0.000259
5.660000E-6,0.000133
5.670000E-6,1.896229E-5
5.680000E-6,-4.820996E-5
5.690000E-6,-9.141973E-5
5.700000E-6,-7.581681E-5
5.710000E-6,-7.494177E-5
5.720000E-6,-7.398297E-5
5.730000E-6,-3.727499E-5
5.740000E-6,-8.747562E-5
5.750000E-6,-0.000171
5.760000E-6,-0.000188
5.770000E-6,-0.000246
5.780000E-6,-0.000344
5.790000E-6,-0.000360
5.800000E-6,-0.000353
5.810000E-6,-0.000382
5.820000E-6,-0.000431
5.830000E-6,-0.000419
5.840000E-6,-0.000351
5.850000E-6,-0.000349
5.860000E-6,-0.000289
5.870000E-6,-0.000245
5.880000E-6,-0.000310
5.890000E-6,-0.000386
5.900000E-6,-0.000465
5.910000E-6,-0.000484
5.920000E-6,-0.000509
5.930000E-6,-0.000560
5.940000E-6,-0.000580
5.950000E-6,-0.000584
5.960000E-6,-0.000588
5.970000E-6,-0.000540
5.980000E-6,-0.000450
5.990000E-6,-0.000449
6.000000E-6,-0.000518
6.010000E-6,-0.000562
6.020000E-6,-0.000554
6.030000E-6,-0.000524
6.040000E-6,-0.000473
6.050000E-6,-0.000438
6.060000E-6,-0.000374
6.070000E-6,-0.000341
6.080000E-6,-0.000387
6.090000E-6,-0.000430
6.100000E-6,-0.000450
6.110000E-6,-0.000426
6.120000E-6,-0.000452
6.130000E-6,-0.000426
6.140000E-6,-0.000380
6.150000E-6,-0.000355
6.160000E-6,-0.000303
6.170000E-6,-0.000359
6.180000E-6,-0.000455
6.190000E-6,-0.000511
6.200000E-6,-0.000515
6.210000E-6,-0.000496
6.220000E-6,-0.000456
6.230000E-6,-0.000402
6.240000E-6,-0.000421
6.250000E-6,-0.000431
6.260000E-6,-0.000348
6.270000E-6,-0.000324
6.280000E-6,-0.000286
6.290000E-6,-0.000200
6.300000E-6,-0.000159
6.310000E-6,-0.000105
6.320000E-6,-0.000167
6.330000E-6,-0.000248
6.340000E-6,-0.000154
6.350000E-6,-7.048806E-5
6.360000E-6,-6.858364E-5
6.370000E-6,-3.097341E-5
6.380000E-6,1.242702E-5
6.390000E-6,3.280013E-5
6.400000E-6,9.564483E-6
6.410000E-6,-9.843411E-5
6.420000E-6,-0.000131
6.430000E-6,-0.000112
6.440000E-6,-0.000129
6.450000E-6,-0.000110
6.460000E-6,-7.029494E-5
6.470000E-6,-6.731843E-5
6.480000E-6,-5.007973E-5
6.490000E-6,3.793863E-5
6.500000E-6,0.000108
6.510000E-6,0.000119
6.520000E-6,7.903464E-5
6.530000E-6,6.186539E-5
6.540000E-6,7.377161E-5
6.550000E-6,0.000107
6.560000E-6,0.000166
6.570000E-6,0.000231
6.580000E-6,0.000236
6.590000E-6,0.000190
6.600000E-6,0.000246
6.610000E-6,0.000320
6.620000E-6,0.000306
6.630000E-6,0.000299
6.640000E-6,0.000341
6.650000E-6,0.000403
6.660000E-6,0.000433
6.670000E-6,0.000448
6.680000E-6,0.000411
6.690000E-6,0.000325
6.700000E-6,0.000320
6.710000E-6,0.000358
6.720000E-6,0.000329
6.730000E-6,0.000273
6.740000E-6,0.000218
6.750000E-6,0.000243
6.760000E-6,0.000296
6.770000E-6,0.000267
6.780000E-6,0.000233
6.790000E-6,9.165957E-5
6.800000E-6,-5.131946E-5
6.810000E-6,-4.624791E-5
6.820000E-6,-4.129236E-5
6.830000E-6,-6.499219E-5
6.840000E-6,-0.000145
6.850000E-6,-0.000200
6.860000E-6,-0.000160
6.870000E-6,-0.000164
6.880000E-6,-0.000168
6.890000E-6,-0.000243
6.900000E-6,-0.000329
6.910000E-6,-0.000318
6.920000E-6,-0.000257
6.930000E-6,-0.000198
6.940000E-6,-0.000220
6.950000E-6,-0.000283
6.960000E-6,-0.000315
6.970000E-6,-0.000288
6.980000E-6,-0.000248
6.990000E-6,-0.000187
7.000000E-6,-0.000192
7.010000E-6,-0.000218
7.020000E-6,-0.000243
7.030000E-6,-0.000274
7.040000E-6,-0.000282
7.050000E-6,-0.000275
7.060000E-6,-0.000303
7.070000E-6,-0.000308
7.080000E-6,-0.000256
7.090000E-6,-0.000276
7.100000E-6,-0.000310
7.110000E-6,-0.000313
7.120000E-6,-0.000273
7.130000E-6,-0.000199
7.140000E-6,-0.000141
7.150000E-6,-0.000127
7.160000E-6,-7.158315E-5
7.170000E-6,1.074574E-5
7.180000E-6,6.147532E-5
7.190000E-6,5.316033E-5
7.200000E-6,1.653467E-5
7.210000E-6,5.971272E-5
7.220000E-6,7.979839E-5
7.230000E-6,9.188309E-5
7.240000E-6,0.000111
7.250000E-6,9.974459E-5
7.260000E-6,0.000118
7.270000E-6,0.000142
7.280000E-6,0.000130
7.290000E-6,7.452739E-5
7.300000E-6,2.854788E-5
7.310000E-6,2.702963E-5
7.320000E-6,2.552567E-5
7.330000E-6,8.110978E-5
7.340000E-6,0.000149
7.350000E-6,0.000164
7.360000E-6,0.000171
7.370000E-6,0.000170
7.380000E-6,0.000255
7.390000E-6,0.000308
7.400000E-6,0.000287
7.410000E-6,0.000344
7.420000E-6,0.000378
7.430000E-6,0.000396
7.440000E-6,0.000476
7.450000E-6,0.000517
7.460000E-6,0.000456
7.470000E-6,0.000389
7.480000E-6,0.000325
7.490000E-6,0.000276
7.500000E-6,0.000264
7.510000E-6,0.000296
7.520000E-6,0.000340
7.530000E-6,0.000317
7.540000E-6,0.000266
7.550000E-6,0.000182
7.560000E-6,0.000121
7.570000E-6,0.000148
7.580000E-6,0.000217
7.590000E-6,0.000154
7.600000E-6,7.194227E-5
7.610000E-6,0.000114
7.620000E-6,0.000126
7.630000E-6,7.319442E-5
7.640000E-6,0.000101
7.650000E-6,0.000134
7.660000E-6,0.000109
7.670000E-6,0.000113
7.680000E-6,6.690727E-5
7.690000E-6,-3.466811E-5
7.700000E-6,-8.962688E-5
7.710000E-6,-0.000135
7.720000E-6,-0.000136
7.730000E-6,-0.000130
7.740000E-6,-0.000273
7.750000E-6,-0.000439
7.760000E-6,-0.000499
7.770000E-6,-0.000520
7.780000E-6,-0.000503
7.790000E-6,-0.000444
7.800000E-6,-0.000336
7.810000E-6,-0.000332
7.820000E-6,-0.000406
7.830000E-6,-0.000355
7.840000E-6,-0.000291
7.850000E-6,-0.000293
7.860000E-6,-0.000302
7.870000E-6,-0.000331
7.880000E-6,-0.000352
7.890000E-6,-0.000343
7.900000E-6,-0.000312
7.910000E-6,-0.000232
7.920000E-6,-0.000212
7.930000E-6,-0.000177
7.940000E-6,-0.000144
7.950000E-6,-0.000205
7.960000E-6,-0.000191
7.970000E-6,-0.000107
7.980000E-6,-8.964916E-5
7.990000E-6,-0.000108
8.000000E-6,-0.000112
8.010000E-6,-6.566467E-5
8.020000E-6,-4.928231E-5
8.030000E-6,-4.056381E-5
8.040000E-6,3.564919E-6
8.050000E-6,3.178710E-5
8.060000E-6,5.891562E-5
8.070000E-6,7.068092E-5
8.080000E-6,0.000110
8.090000E-6,0.000170
8.100000E-6,0.000163
8.110000E-6,8.431399E-5
8.120000E-6,0.000144
8.130000E-6,0.000202
8.140000E-6,0.000207
8.150000E-6,0.000261
8.160000E-6,0.000263
8.170000E-6,0.000265
8.180000E-6,0.000244
8.190000E-6,0.000225
8.200000E-6,0.000198
8.210000E-6,0.000151
8.220000E-6,0.000126
8.230000E-6,7.389962E-5
8.240000E-6,9.187322E-6
8.250000E-6,3.927509E-6
8.260000E-6,-5.108173E-5
8.270000E-6,-6.117215E-5
8.280000E-6,-5.652635E-5
8.290000E-6,-9.476885E-5
8.300000E-6,-0.000110
8.310000E-6,-0.000132
8.320000E-6,-0.000202
8.330000E-6,-0.000270
8.340000E-6,-0.000256
8.350000E-6,-0.000178
8.360000E-6,-0.000196
8.370000E-6,-0.000312
8.380000E-6,-0.000339
8.390000E-6,-0.000370
8.400000E-6,-0.000329
8.410000E-6,-0.000303
8.420000E-6,-0.000334
8.430000E-6,-0.000343
8.440000E-6,-0.000364
8.450000E-6,-0.000328
8.460000E-6,-0.000292
8.470000E-6,-0.000236
8.480000E-6,-0.000145
8.490000E-6,-7.968284E-5
8.500000E-6,-5.191466E-5
8.510000E-6,-4.649560E-5
8.520000E-6,-9.114300E-5
8.530000E-6,-0.000191
8.540000E-6,-0.000223
8.550000E-6,-0.000224
8.560000E-6,-0.000233
8.570000E-6,-0.000198
8.580000E-6,-0.000178
8.590000E-6,-0.000201
8.600000E-6,-0.000181
8.610000E-6,-0.000154
8.620000E-6,-8.442640E-5
8.630000E-6,-1.762482E-5
8.640000E-6,-5.314396E-5
8.650000E-6,-0.000123
8.660000E-6,-0.000240
8.670000E-6,-0.000267
8.680000E-6,-0.000263
8.690000E-6,-0.000267
8.700000E-6,-0.000177
8.710000E-6,-0.000112
8.720000E-6,-0.000177
8.730000E-6,-0.000204
8.740000E-6,-0.000187
8.750000E-6,-0.000192
8.760000E-6,-0.000139
8.770000E-6,-8.053475E-5
8.780000E-6,-9.561243E-5
8.790000E-6,-0.000124
8.800000E-6,-0.000116
8.810000E-6,-0.000108
8.820000E-6,-4.985360E-5
8.830000E-6,-8.229801E-6
8.840000E-6,-1.093757E-5
8.850000E-6,7.398200E-7
8.860000E-6,-4.508806E-5
8.870000E-6,-0.000118
8.880000E-6,-4.473530E-5
8.890000E-6,-2.950733E-6
8.900000E-6,-9.111983E-5
8.910000E-6,-0.000147
8.920000E-6,-0.000166
8.930000E-6,-0.000211
8.940000E-6,-0.000234
8.950000E-6,-0.000191
8.960000E-6,-0.000164
8.970000E-6,-0.000208
8.980000E-6,-0.000294
8.990000E-6,-0.000368
9.000000E-6,-0.000369
9.010000E-6,-0.000361
9.020000E-6,-0.000382
9.030000E-6,-0.000351
9.040000E-6,-0.000321
9.050000E-6,-0.000306
9.060000E-6,-0.000283
9.070000E-6,-0.000297
9.080000E-6,-0.000296
9.090000E-6,-0.000330
9.100000E-6,-0.000355
9.110000E-6,-0.000435
9.120000E-6,-0.000498
9.130000E-6,-0.000400
9.140000E-6,-0.000335
9.150000E-6,-0.000342
9.160000E-6,-0.000299
9.170000E-6,-0.000221
9.180000E-6,-0.000245
9.190000E-6,-0.000354
9.200000E-6,-0.000444
9.210000E-6,-0.000466
9.220000E-6,-0.000443
9.230000E-6,-0.000314
9.240000E-6,-0.000110
9.250000E-6,2.897429E-5
9.260000E-6,6.306259E-5
9.270000E-6,6.012168E-5
9.280000E-6,8.573242E-5
9.290000E-6,0.000139
9.300000E-6,0.000140
9.310000E-6,0.000183
9.320000E-6,0.000218
9.330000E-6,0.000222
9.340000E-6,0.000361
9.350000E-6,0.000452
9.360000E-6,0.000453
9.370000E-6,0.000468
9.380000E-6,0.000489
9.390000E-6,0.000486
9.400000E-6,0.000391
9.410000E-6,0.000312
9.420000E-6,0.000307
9.430000E-6,0.000324
9.440000E-6,0.000346
9.450000E-6,0.000424
9.460000E-6,0.000513
9.470000E-6,0.000612
9.480000E-6,0.000706
9.490000E-6,0.000682
9.500000E-6,0.000564
9.510000E-6,0.000486
9.520000E-6,0.000474
9.530000E-6,0.000419
9.540000E-6,0.000345
9.550000E-6,0.000315
9.560000E-6,0.000285
9.570000E-6,0.000285
9.580000E-6,0.000328
9.590000E-6,0.000304
9.600000E-6,0.000237
9.610000E-6,0.000230
9.620000E-6,0.000258
9.630000E-6,0.000357
9.640000E-6,0.000493
9.650000E-6,0.000546
9.660000E-6,0.000610
9.670000E-6,0.000635
9.680000E-6,0.000658
9.690000E-6,0.000672
9.700000E-6,0.000578
9.710000E-6,0.000465
9.720000E-6,0.000398
9.730000E-6,0.000354
9.740000E-6,0.000311
9.750000E-6,0.000305
9.760000E-6,0.000306
9.770000E-6,0.000286
9.780000E-6,0.000286
9.790000E-6,0.000308
9.800000E-6,0.000279
9.810000E-6,0.000307
9.820000E-6,0.000398
9.830000E-6,0.000392
9.840000E-6,0.000372
9.850000E-6,0.000301
9.860000E-6,0.000198
9.870000E-6,6.180902E-5
9.880000E-6,-5.486639E-5
9.890000E-6,-8.153109E-5
9.900000E-6,-0.000107
9.910000E-6,-5.304876E-5
9.920000E-6,1.333580E-5
9.930000E-6,-2.263290E-5
9.940000E-6,-0.000100
9.950000E-6,-0.000182
9.960000E-6,-0.000260
9.970000E-6,-0.000299
9.980000E-6,-0.000336
9.990000E-6,-0.000386
1.000000E-5,-0.000426
1.001000E-5,-0.000478
1.002000E-5,-0.000507
1.003000E-5,-0.000526
1.004000E-5,-0.000579
1.005000E-5,-0.000594
1.006000E-5,-0.000600
1.007000E-5,-0.000570
1.008000E-5,-0.000554
1.009000E-5,-0.000494
1.010000E-5,-0.000429
1.011000E-5,-0.000495
1.012000E-5,-0.000585
1.013000E-5,-0.000715
1.014000E-5,-0.000802
1.015000E-5,-0.000821
1.016000E-5,-0.000802
1.017000E-5,-0.000819
1.018000E-5,-0.000869
1.019000E-5,-0.000837
1.020000E-5,-0.000799
1.021000E-5,-0.000803
1.022000E-5,-0.000806
1.023000E-5,-0.000786
1.024000E-5,-0.000780
1.025000E-5,-0.000830
1.026000E-5,-0.000898
1.027000E-5,-0.000969
1.028000E-5,-0.001022
1.029000E-5,-0.000986
1.030000E-5,-0.000993
1.031000E-5,-0.000955
1.032000E-5,-0.000810
1.033000E-5,-0.000747
1.034000E-5,-0.000721
1.035000E-5,-0.000638
1.036000E-5,-0.000579
1.037000E-5,-0.000620
1.038000E-5,-0.000667
1.039000E-5,-0.000675
1.040000E-5,-0.000688
1.041000E-5,-0.000729
1.042000E-5,-0.000781
1.043000E-5,-0.000809
1.044000E-5,-0.000856
1.045000E-5,-0.000921
1.046000E-5,-0.000925
1.047000E-5,-0.000878
1.048000E-5,-0.000831
1.049000E-5,-0.000799
1.050000E-5,-0.000717
1.051000E-5,-0.000644
1.052000E-5,-0.000687
1.053000E-5,-0.000741
1.054000E-5,-0.000749
1.055000E-5,-0.000764
1.056000E-5,-0.000697
1.057000E-5,-0.000647
1.058000E-5,-0.000647
1.059000E-5,-0.000575
1.060000E-5,-0.000534
1.061000E-5,-0.000557
1.062000E-5,-0.000550
1.063000E-5,-0.000499
1.064000E-5,-0.000450
1.065000E-5,-0.000366
1.066000E-5,-0.000363
1.067000E-5,-0.000374
1.068000E-5,-0.000242
1.069000E-5,-0.000163
1.070000E-5,-0.000123
1.071000E-5,-8.476426E-5
1.072000E-5,-9.735317E-5
1.073000E-5,-0.000174
1.074000E-5,-0.000175
1.075000E-5,-0.000120
1.076000E-5,-0.000130
1.077000E-5,-0.000154
1.078000E-5,-0.000106
1.079000E-5,3.370412E-5
1.080000E-5,0.000111
1.081000E-5,0.000214
1.082000E-5,0.000341
1.083000E-5,0.000377
1.084000E-5,0.000418
1.085000E-5,0.000465
1.086000E-5,0.000459
1.087000E-5,0.000481
1.088000E-5,0.000437
1.089000E-5,0.000380
1.090000E-5,0.000375
1.091000E-5,0.000340
1.092000E-5,0.000314
1.093000E-5,0.000309
1.094000E-5,0.000311
1.095000E-5,0.000277
1.096000E-5,0.000265
1.097000E-5,0.000311
1.098000E-5,0.000382
1.099000E-5,0.000336
1.100000E-5,0.000221
1.101000E-5,0.000208
1.102000E-5,0.000182
1.103000E-5,0.000135
1.104000E-5,9.695239E-5
1.105000E-5,8.846167E-5
1.106000E-5,0.000151
1.107000E-5,0.000255
1.108000E-5,0.000268
1.109000E-5,0.000217
1.110000E-5,0.000188
1.111000E-5,0.000203
1.112000E-5,0.000245
1.113000E-5,0.000200
1.114000E-5,0.000164
1.115000E-5,9.971864E-5
1.116000E-5,7.363573E-5
1.117000E-5,9.834189E-5
1.118000E-5,0.000136
1.119000E-5,0.000187
1.120000E-5,0.000157
1.121000E-5,9.899862E-5
1.122000E-5,7.177873E-5
1.123000E-5,9.539287E-5
1.124000E-5,0.000132
1.125000E-5,0.000217
1.126000E-5,0.000256
1.127000E-5,0.000286
1.128000E-5,0.000329
1.129000E-5,0.000298
1.130000E-5,0.000275
1.131000E-5,0.000281
1.132000E-5,0.000294
1.133000E-5,0.000305
1.134000E-5,0.000402
1.135000E-5,0.000465
1.136000E-5,0.000426
1.137000E-5,0.000466
1.138000E-5,0.000511
1.139000E-5,0.000439
1.140000E-5,0.000362
1.141000E-5,0.000344
1.142000E-5,0.000313
1.143000E-5,0.000282
1.144000E-5,0.000273
1.145000E-5,0.000242
1.146000E-5,0.000284
1.147000E-5,0.000302
1.148000E-5,0.000269
1.149000E-5,0.000230
1.150000E-5,0.000192
1.151000E-5,0.000177
1.152000E-5,0.000190
1.153000E-5,0.000238
1.154000E-5,0.000284
1.155000E-5,0.000321
1.156000E-5,0.000334
1.157000E-5,0.000375
1.158000E-5,0.000379
1.159000E-5,0.000367
1.160000E-5,0.000391
1.161000E-5,0.000442
1.162000E-5,0.000440
1.163000E-5,0.000438
1.164000E-5,0.000492
1.165000E-5,0.000508
1.166000E-5,0.000558
1.167000E-5,0.000612
1.168000E-5,0.000585
1.169000E-5,0.000530
1.170000E-5,0.000490
1.171000E-5,0.000494
1.172000E-5,0.000489
1.173000E-5,0.000470
1.174000E-5,0.000472
1.175000E-5,0.000538
1.176000E-5,0.000564
1.177000E-5,0.000496
1.178000E-5,0.000494
1.179000E-5,0.000491
1.180000E-5,0.000438
1.181000E-5,0.000422
1.182000E-5,0.000412
1.183000E-5,0.000324
1.184000E-5,0.000253
1.185000E-5,0.000277
1.186000E-5,0.000264
1.187000E-5,0.000180
1.188000E-5,8.397644E-5
1.189000E-5,2.731578E-5
1.190000E-5,8.379562E-6
1.191000E-5,3.293509E-5
1.192000E-5,3.512889E-5
1.193000E-5,-4.128693E-5
1.194000E-5,-0.000136
1.195000E-5,-0.000227
1.196000E-5,-0.000258
1.197000E-5,-0.000208
1.198000E-5,-0.000146
1.199000E-5,-0.000121
1.200000E-5,-0.000112
1.201000E-5,-0.000102
1.202000E-5,-9.299603E-5
1.203000E-5,-0.000120
1.204000E-5,-0.000109
1.205000E-5,-1.380710E-5
1.206000E-5,5.688393E-5
1.207000E-5,4.639684E-5
1.208000E-5,-5.651606E-5
1.209000E-5,-0.000205
1.210000E-5,-0.000249
1.211000E-5,-0.000197
1.212000E-5,-0.000162
1.213000E-5,-0.000206
1.214000E-5,-0.000240
1.215000E-5,-0.000259
1.216000E-5,-0.000341
1.217000E-5,-0.000434
1.218000E-5,-0.000487
1.219000E-5,-0.000452
1.220000E-5,-0.000467
1.221000E-5,-0.000538
1.222000E-5,-0.000563
1.223000E-5,-0.000550
1.224000E-5,-0.000572
1.225000E-5,-0.000593
1.226000E-5,-0.000569
1.227000E-5,-0.000496
1.228000E-5,-0.000481
1.229000E-5,-0.000588
1.230000E-5,-0.000711
1.231000E-5,-0.000757
1.232000E-5,-0.000693
1.233000E-5,-0.000737
1.234000E-5,-0.000800
1.235000E-5,-0.000796
1.236000E-5,-0.000754
1.237000E-5,-0.000620
1.238000E-5,-0.000505
1.239000E-5,-0.000414
1.240000E-5,-0.000312
1.241000E-5,-0.000270
1.242000E-5,-0.000265
1.243000E-5,-0.000203
1.244000E-5,-0.000185
1.245000E-5,-0.000182
1.246000E-5,-0.000136
1.247000E-5,-9.903500E-5
1.248000E-5,-5.584870E-5
1.249000E-5,7.228005E-6
1.250000E-5,0.000104
1.251000E-5,0.000146
1.252000E-5,0.000152
1.253000E-5,0.000185
1.254000E-5,0.000231
1.255000E-5,0.000232
1.256000E-5,0.000247
1.257000E-5,0.000304
1.258000E-5,0.000302
1.259000E-5,0.000242
1.260000E-5,0.000183
1.261000E-5,0.000184
1.262000E-5,0.000227
1.263000E-5,0.000275
1.264000E-5,0.000307
1.265000E-5,0.000373
1.266000E-5,0.000336
1.267000E-5,0.000250
1.268000E-5,0.000231
1.269000E-5,0.000219
1.270000E-5,0.000229
1.271000E-5,0.000231
1.272000E-5,0.000233
1.273000E-5,0.000270
1.274000E-5,0.000305
1.275000E-5,0.000317
1.276000E-5,0.000306
1.277000E-5,0.000296
1.278000E-5,0.000328
1.279000E-5,0.000308
1.280000E-5,0.000311
1.281000E-5,0.000341
1.282000E-5,0.000348
1.283000E-5,0.000304
1.284000E-5,0.000255
1.285000E-5,0.000214
1.286000E-5,0.000202
1.287000E-5,0.000298
1.288000E-5,0.000319
1.289000E-5,0.000245
1.290000E-5,0.000188
1.291000E-5,0.000155
1.292000E-5,0.000165
1.293000E-5,0.000153
1.294000E-5,0.000141
1.295000E-5,0.000129
1.296000E-5,7.539638E-5
1.297000E-5,2.319766E-5
1.298000E-5,-3.423935E-5
1.299000E-5,-6.809579E-5
1.300000E-5,-0.000101
1.301000E-5,-8.892929E-5
1.302000E-5,3.658537E-5
1.303000E-5,0.000107
1.304000E-5,6.140240E-5
1.305000E-5,4.548950E-5
1.306000E-5,4.436296E-5
1.307000E-5,-3.526462E-5
1.308000E-5,-9.048886E-5
1.309000E-5,-7.218924E-5
1.310000E-5,-0.000126
1.311000E-5,-0.000206
1.312000E-5,-0.000282
1.313000E-5,-0.000349
1.314000E-5,-0.000362
1.315000E-5,-0.000317
1.316000E-5,-0.000302
1.317000E-5,-0.000337
1.318000E-5,-0.000263
1.319000E-5,-0.000235
1.320000E-5,-0.000292
1.321000E-5,-0.000340
1.322000E-5,-0.000364
1.323000E-5,-0.000351
1.324000E-5,-0.000374
1.325000E-5,-0.000381
1.326000E-5,-0.000330
1.327000E-5,-0.000280
1.328000E-5,-0.000246
1.329000E-5,-0.000185
1.330000E-5,-8.210827E-5
1.331000E-5,-1.903272E-5
1.332000E-5,4.173815E-5
1.333000E-5,0.000100
1.334000E-5,0.000121
1.335000E-5,0.000133
1.336000E-5,0.000102
1.337000E-5,0.000122
1.338000E-5,0.000219
1.339000E-5,0.000263
1.340000E-5,0.000269
1.341000E-5,0.000267
1.342000E-5,0.000236
1.343000E-5,0.000177
1.344000E-5,0.000106
1.345000E-5,9.489960E-5
1.346000E-5,6.235754E-5
1.347000E-5,3.805708E-5
1.348000E-5,6.453488E-5
1.349000E-5,1.145884E-5
1.350000E-5,-4.000840E-6
1.351000E-5,5.959176E-5
1.352000E-5,7.793471E-5
1.353000E-5,8.834407E-5
1.354000E-5,0.000112
1.355000E-5,9.991628E-5
1.356000E-5,7.337605E-5
1.357000E-5,7.624024E-5
1.358000E-5,8.601427E-5
1.359000E-5,8.102529E-5
1.360000E-5,5.469336E-5
1.361000E-5,-3.495488E-5
1.362000E-5,-0.000107
1.363000E-5,-8.339949E-5
1.364000E-5,-3.917629E-5
1.365000E-5,-1.793089E-5
1.366000E-5,9.690094E-6
1.367000E-5,7.737926E-6
1.368000E-5,-3.695798E-5
1.369000E-5,-3.713860E-5
1.370000E-5,4.835299E-5
1.371000E-5,0.000102
1.372000E-5,8.230090E-5
1.373000E-5,2.033187E-5
1.374000E-5,-3.224146E-5
1.375000E-5,-4.001530E-5
1.376000E-5,-4.743944E-5
1.377000E-5,-7.591731E-5
1.378000E-5,-0.000117
1.379000E-5,-0.000186
1.380000E-5,-0.000223
1.381000E-5,-0.000180
1.382000E-5,-0.000145
1.383000E-5,-0.000126
1.384000E-5,-0.000121
1.385000E-5,-0.000131
1.386000E-5,-0.000104
1.387000E-5,-8.558710E-5
1.388000E-5,-8.180119E-5
1.389000E-5,-7.089461E-5
1.390000E-5,-4.601375E-5
1.391000E-5,1.368767E-5
1.392000E-5,1.408658E-5
1.393000E-5,-3.548909E-5
1.394000E-5,1.670082E-5
1.395000E-5,0.000138
1.396000E-5,0.000184
1.397000E-5,0.000163
1.398000E-5,0.000150
1.399000E-5,0.000130
1.400000E-5,0.000111
1.401000E-5,0.000149
1.402000E-5,0.000164
1.403000E-5,0.000115
1.404000E-5,4.496277E-5
1.405000E-5,-2.208576E-5
1.406000E-5,-5.094887E-5
1.407000E-5,-2.159293E-5
1.408000E-5,4.238013E-5
1.409000E-5,0.000104
1.410000E-5,9.881571E-5
1.411000E-5,3.667506E-5
1.412000E-5,-5.889285E-5
1.413000E-5,-6.522493E-5
1.414000E-5,-5.695359E-5
1.415000E-5,-9.883805E-5
1.416000E-5,-7.481337E-5
1.417000E-5,-0.000116
1.418000E-5,-0.000176
1.419000E-5,-0.000163
1.420000E-5,-0.000143
1.421000E-5,-0.000124
1.422000E-5,-6.885236E-5
1.423000E-5,-8.925447E-6
1.424000E-5,-1.140336E-6
1.425000E-5,-5.071354E-5
1.426000E-5,-1.276566E-5
1.427000E-5,5.946770E-5
1.428000E-5,7.657858E-6
1.429000E-5,-8.505057E-5
1.430000E-5,-0.000167
1.431000E-5,-0.000217
1.432000E-5,-0.000230
1.433000E-5,-0.000205
1.434000E-5,-0.000160
1.435000E-5,-0.000167
1.436000E-5,-0.000194
1.437000E-5,-0.000206
1.438000E-5,-0.000231
1.439000E-5,-0.000276
1.440000E-5,-0.000234
1.441000E-5,-0.000150
1.442000E-5,-8.304963E-5
1.443000E-5,-3.281735E-5
1.444000E-5,4.414289E-5
1.445000E-5,0.000104
1.446000E-5,0.000111
1.447000E-5,0.000147
1.448000E-5,0.000124
1.449000E-5,0.000109
1.450000E-5,0.000144
1.451000E-5,0.000149
1.452000E-5,0.000146
1.453000E-5,0.000129
1.454000E-5,0.000163
1.455000E-5,0.000209
1.456000E-5,0.000175
1.457000E-5,0.000220
1.458000E-5,0.000291
1.459000E-5,0.000331
1.460000E-5,0.000369
1.461000E-5,0.000434
1.462000E-5,0.000481
1.463000E-5,0.000505
1.464000E-5,0.000548
1.465000E-5,0.000546
1.466000E-5,0.000507
1.467000E-5,0.000469
1.468000E-5,0.000425
1.469000E-5,0.000353
1.470000E-5,0.000298
1.471000E-5,0.000251
1.472000E-5,0.000212
1.473000E-5,0.000261
1.474000E-5,0.000307
1.475000E-5,0.000244
1.476000E-5,0.000247
1.477000E-5,0.000314
1.478000E-5,0.000349
1.479000E-5,0.000425
1.480000E-5,0.000456
1.481000E-5,0.000384
1.482000E-5,0.000321
1.483000E-5,0.000254
1.484000E-5,0.000152
1.485000E-5,0.000168
1.486000E-5,0.000205
1.487000E-5,0.000148
1.488000E-5,0.000199
1.489000E-5,0.000255
1.490000E-5,0.000266
1.491000E-5,0.000241
1.492000E-5,0.000130
1.493000E-5,0.000109
1.494000E-5,0.000110
1.495000E-5,7.518243E-5
1.496000E-5,-3.703724E-5
1.497000E-5,-0.000117
1.498000E-5,-0.000136
1.499000E-5,-0.000161
1.500000E-5,-0.000157
1.501000E-5,-0.000188
1.502000E-5,-0.000247
1.503000E-5,-0.000281
1.504000E-5,-0.000321
1.505000E-5,-0.000323
1.506000E-5,-0.000261
1.507000E-5,-0.000265
1.508000E-5,-0.000289
1.509000E-5,-0.000319
1.510000E-5,-0.000355
1.511000E-5,-0.000417
1.512000E-5,-0.000520
1.513000E-5,-0.000496
1.514000E-5,-0.000465
1.515000E-5,-0.000506
1.516000E-5,-0.000524
1.517000E-5,-0.000618
1.518000E-5,-0.000708
1.519000E-5,-0.000737
1.520000E-5,-0.000713
1.521000E-5,-0.000625
1.522000E-5,-0.000539
1.523000E-5,-0.000498
1.524000E-5,-0.000487
1.525000E-5,-0.000497
1.526000E-5,-0.000463
1.527000E-5,-0.000422
1.528000E-5,-0.000439
1.529000E-5,-0.000390
1.530000E-5,-0.000350
1.531000E-5,-0.000390
1.532000E-5,-0.000434
1.533000E-5,-0.000455
1.534000E-5,-0.000445
1.535000E-5,-0.000378
1.536000E-5,-0.000314
1.537000E-5,-0.000301
1.538000E-5,-0.000316
1.539000E-5,-0.000316
1.540000E-5,-0.000316
1.541000E-5,-0.000344
1.542000E-5,-0.000349
1.543000E-5,-0.000267
1.544000E-5,-0.000217
1.545000E-5,-0.000225
1.546000E-5,-0.000175
1.547000E-5,-0.000135
1.548000E-5,-0.000173
1.549000E-5,-0.000182
1.550000E-5,-0.000140
1.551000E-5,-0.000157
1.552000E-5,-0.000223
1.553000E-5,-0.000250
1.554000E-5,-0.000247
1.555000E-5,-0.000258
1.556000E-5,-0.000290
1.557000E-5,-0.000328
1.558000E-5,-0.000320
1.559000E-5,-0.000298
1.560000E-5,-0.000220
1.561000E-5,-0.000137
1.562000E-5,-9.209663E-5
1.563000E-5,-2.760958E-5
1.564000E-5,4.166785E-5
1.565000E-5,0.000115
1.566000E-5,0.000136
1.567000E-5,7.786256E-5
1.568000E-5,6.418734E-5
1.569000E-5,0.000122
1.570000E-5,0.000128
1.571000E-5,0.000133
1.572000E-5,0.000188
1.573000E-5,0.000212
1.574000E-5,0.000292
1.575000E-5,0.000340
1.576000E-5,0.000307
1.577000E-5,0.000240
1.578000E-5,0.000210
1.579000E-5,0.000288
1.580000E-5,0.000298
1.581000E-5,0.000250
1.582000E-5,0.000268
1.583000E-5,0.000242
1.584000E-5,0.000117
1.585000E-5,9.634767E-5
1.586000E-5,0.000112
1.587000E-5,0.000119
1.588000E-5,0.000134
1.589000E-5,0.000140
1.590000E-5,0.000189
1.591000E-5,0.000228
1.592000E-5,0.000251
1.593000E-5,0.000167
1.594000E-5,0.000135
1.595000E-5,0.000218
1.596000E-5,0.000290
1.597000E-5,0.000345
1.598000E-5,0.000326
1.599000E-5,0.000322
1.600000E-5,0.000289
1.601000E-5,0.000221
1.602000E-5,0.000248
1.603000E-5,0.000294
1.604000E-5,0.000318
1.605000E-5,0.000290
1.606000E-5,0.000276
1.607000E-5,0.000306
1.608000E-5,0.000313
1.609000E-5,0.000319
1.610000E-5,0.000296
1.611000E-5,0.000323
1.612000E-5,0.000355
1.613000E-5,0.000308
1.614000E-5,0.000262
1.615000E-5,0.000238
1.616000E-5,0.000179
1.617000E-5,7.251804E-5
1.618000E-5,-8.999522E-6
1.619000E-5,-9.012519E-6
1.620000E-5,4.092692E-5
1.621000E-5,3.901688E-5
1.622000E-5,5.851905E-5
1.623000E-5,9.861082E-5
1.624000E-5,5.145814E-5
1.625000E-5,-1.163363E-6
1.626000E-5,5.236231E-6
1.627000E-5,-1.001111E-5
1.628000E-5,-8.175067E-5
1.629000E-5,-0.000151
1.630000E-5,-0.000174
1.631000E-5,-0.000182
1.632000E-5,-0.000261
1.633000E-5,-0.000251
1.634000E-5,-0.000176
1.635000E-5,-0.000133
1.636000E-5,-6.936711E-5
1.637000E-5,-0.000108
1.638000E-5,-0.000202
1.639000E-5,-0.000221
1.640000E-5,-0.000204
1.641000E-5,-0.000122
1.642000E-5,-3.627041E-5
1.643000E-5,-5.342399E-5
1.644000E-5,-5.559198E-5
1.645000E-5,-5.216035E-7
1.646000E-5,3.824366E-5
1.647000E-5,2.557711E-5
1.648000E-5,3.474166E-5
1.649000E-5,0.000101
1.650000E-5,0.000114
1.651000E-5,0.000141
1.652000E-5,0.000195
1.653000E-5,0.000233
1.654000E-5,0.000240
1.655000E-5,0.000225
1.656000E-5,0.000161
1.657000E-5,4.159990E-5
1.658000E-5,-4.487329E-5
1.659000E-5,-0.000107
1.660000E-5,-0.000137
1.661000E-5,-0.000174
1.662000E-5,-0.000188
1.663000E-5,-0.000136
1.664000E-5,-6.507814E-5
1.665000E-5,-6.067502E-5
1.666000E-5,-9.914480E-5
1.667000E-5,-0.000122
1.668000E-5,-0.000143
1.669000E-5,-0.000107
1.670000E-5,-9.296485E-5
1.671000E-5,-0.000165
1.672000E-5,-0.000227
1.673000E-5,-0.000294
1.674000E-5,-0.000371
1.675000E-5,-0.000396
1.676000E-5,-0.000397
1.677000E-5,-0.000348
1.678000E-5,-0.000272
1.679000E-5,-0.000205
1.680000E-5,-7.634932E-5
1.681000E-5,-5.202716E-5
1.682000E-5,-7.846243E-5
1.683000E-5,-6.812783E-5
1.684000E-5,-6.520408E-5
1.685000E-5,-6.228746E-5
1.686000E-5,-9.505223E-5
1.687000E-5,-0.000105
1.688000E-5,-0.000107
1.689000E-5,-0.000224
1.690000E-5,-0.000292
1.691000E-5,-0.000244
1.692000E-5,-0.000290
1.693000E-5,-0.000326
1.694000E-5,-0.000340
1.695000E-5,-0.000345
1.696000E-5,-0.000313
1.697000E-5,-0.000290
1.698000E-5,-0.000267
1.699000E-5,-0.000266
1.700000E-5,-0.000271
1.701000E-5,-0.000276
1.702000E-5,-0.000238
1.703000E-5,-0.000207
1.704000E-5,-0.000213
1.705000E-5,-0.000148
1.706000E-5,-9.129084E-5
1.707000E-5,-0.000115
1.708000E-5,-0.000153
1.709000E-5,-0.000188
1.710000E-5,-0.000179
1.711000E-5,-0.000128
1.712000E-5,-4.939358E-5
1.713000E-5,-9.501243E-6
1.714000E-5,-7.808041E-5
1.715000E-5,-0.000101
1.716000E-5,-9.476477E-5
1.717000E-5,-0.000167
1.718000E-5,-0.000193
1.719000E-5,-0.000218
1.720000E-5,-0.000285
1.721000E-5,-0.000320
1.722000E-5,-0.000282
1.723000E-5,-0.000203
1.724000E-5,-0.000140
1.725000E-5,-5.047349E-5
1.726000E-5,-2.148812E-5
1.727000E-5,-0.000108
1.728000E-5,-0.000262
1.729000E-5,-0.000360
1.730000E-5,-0.000326
1.731000E-5,-0.000278
1.732000E-5,-0.000267
1.733000E-5,-0.000298
1.734000E-5,-0.000307
1.735000E-5,-0.000272
1.736000E-5,-0.000181
1.737000E-5,-0.000122
1.738000E-5,-0.000172
1.739000E-5,-0.000241
1.740000E-5,-0.000250
1.741000E-5,-0.000179
1.742000E-5,-8.995154E-5
1.743000E-5,-3.945074E-5
1.744000E-5,-9.776760E-5
1.745000E-5,-3.249688E-5
1.746000E-5,3.754279E-5
1.747000E-5,-4.488157E-5
1.748000E-5,-5.284619E-5
1.749000E-5,-1.049619E-5
1.750000E-5,8.900893E-6
1.751000E-5,-2.237162E-5
1.752000E-5,-9.648197E-6
1.753000E-5,-4.514664E-6
1.754000E-5,-2.810010E-5
1.755000E-5,2.057081E-5
1.756000E-5,9.594470E-5
1.757000E-5,0.000154
1.758000E-5,0.000210
1.759000E-5,0.000199
1.760000E-5,0.000131
1.761000E-5,0.000101
1.762000E-5,0.000130
1.763000E-5,0.000199
1.764000E-5,0.000273
1.765000E-5,0.000358
1.766000E-5,0.000397
1.767000E-5,0.000391
1.768000E-5,0.000406
1.769000E-5,0.000455
1.770000E-5,0.000573
1.771000E-5,0.000657
1.772000E-5,0.000709
1.773000E-5,0.000843
1.774000E-5,0.000921
1.775000E-5,0.000873
1.776000E-5,0.000848
1.777000E-5,0.000822
1.778000E-5,0.000788
1.779000E-5,0.000712
1.780000E-5,0.000616
1.781000E-5,0.000572
1.782000E-5,0.000572
1.783000E-5,0.000564
1.784000E-5,0.000556
1.785000E-5,0.000603
1.786000E-5,0.000592
1.787000E-5,0.000515
1.788000E-5,0.000469
1.789000E-5,0.000438
1.790000E-5,0.000358
1.791000E-5,0.000309
1.792000E-5,0.000304
1.793000E-5,0.000256
1.794000E-5,0.000230
1.795000E-5,0.000220
1.796000E-5,0.000238
1.797000E-5,0.000241
1.798000E-5,0.000179
1.799000E-5,0.000176
1.800000E-5,0.000151
1.801000E-5,0.000156
1.802000E-5,0.000189
1.803000E-5,0.000106
1.804000E-5,5.103435E-6
1.805000E-5,-4.961146E-5
1.806000E-5,-0.000109
1.807000E-5,-0.000174
1.808000E-5,-0.000221
1.809000E-5,-0.000281
1.810000E-5,-0.000274
1.811000E-5,-0.000217
1.812000E-5,-0.000240
1.813000E-5,-0.000247
1.814000E-5,-0.000254
1.815000E-5,-0.000232
1.816000E-5,-0.000160
1.817000E-5,-0.000148
1.818000E-5,-0.000172
1.819000E-5,-0.000258
1.820000E-5,-0.000299
1.821000E-5,-0.000251
1.822000E-5,-0.000198
1.823000E-5,-0.000218
1.824000E-5,-0.000287
1.825000E-5,-0.000353
1.826000E-5,-0.000423
1.827000E-5,-0.000418
1.828000E-5,-0.000420
1.829000E-5,-0.000464
1.830000E-5,-0.000456
1.831000E-5,-0.000426
1.832000E-5,-0.000425
1.833000E-5,-0.000445
1.834000E-5,-0.000563
1.835000E-5,-0.000669
1.836000E-5,-0.000663
1.837000E-5,-0.000670
1.838000E-5,-0.000647
1.839000E-5,-0.000596
1.840000E-5,-0.000510
1.841000E-5,-0.000370
1.842000E-5,-0.000277
1.843000E-5,-0.000236
1.844000E-5,-0.000226
1.845000E-5,-0.000244
1.846000E-5,-0.000304
1.847000E-5,-0.000339
1.848000E-5,-0.000302
1.849000E-5,-0.000237
1.850000E-5,-0.000152
1.851000E-5,-9.938138E-5
1.852000E-5,-0.000105
1.853000E-5,-9.643367E-5
1.854000E-5,-0.000109
1.855000E-5,-0.000150
1.856000E-5,-0.000203
1.857000E-5,-0.000218
1.858000E-5,-0.000254
1.859000E-5,-0.000295
1.860000E-5,-0.000342
1.861000E-5,-0.000371
1.862000E-5,-0.000257
1.863000E-5,-0.000182
1.864000E-5,-0.000231
1.865000E-5,-0.000270
1.866000E-5,-0.000258
1.867000E-5,-0.000231
1.868000E-5,-0.000134
1.869000E-5,-4.694142E-5
1.870000E-5,8.156745E-6
1.871000E-5,0.000104
1.872000E-5,0.000139
1.873000E-5,0.000101
1.874000E-5,0.000108
1.875000E-5,0.000163
1.876000E-5,0.000153
1.877000E-5,0.000185
1.878000E-5,0.000258
1.879000E-5,0.000243
1.880000E-5,0.000207
1.881000E-5,0.000257
1.882000E-5,0.000362
1.883000E-5,0.000399
1.884000E-5,0.000405
1.885000E-5,0.000438
1.886000E-5,0.000448
1.887000E-5,0.000393
1.888000E-5,0.000368
1.889000E-5,0.000386
1.890000E-5,0.000332
1.891000E-5,0.000272
1.892000E-5,0.000263
1.893000E-5,0.000241
1.894000E-5,0.000233
1.895000E-5,0.000232
1.896000E-5,0.000330
1.897000E-5,0.000425
1.898000E-5,0.000380
1.899000E-5,0.000350
1.900000E-5,0.000349
1.901000E-5,0.000226
1.902000E-5,0.000108
1.903000E-5,0.000172
1.904000E-5,0.000212
1.905000E-5,0.000215
1.906000E-5,0.000238
1.907000E-5,0.000261
1.908000E-5,0.000289
1.909000E-5,0.000302
1.910000E-5,0.000342
1.911000E-5,0.000380
1.912000E-5,0.000430
1.913000E-5,0.000464
1.914000E-5,0.000452
1.915000E-5,0.000455
1.916000E-5,0.000493
1.917000E-5,0.000557
1.918000E-5,0.000632
1.919000E-5,0.000725
1.920000E-5,0.000784
1.921000E-5,0.000762
1.922000E-5,0.000689
1.923000E-5,0.000640
1.924000E-5,0.000584
1.925000E-5,0.000522
1.926000E-5,0.000512
1.927000E-5,0.000544
1.928000E-5,0.000602
1.929000E-5,0.000665
1.930000E-5,0.000646
1.931000E-5,0.000626
1.932000E-5,0.000642
1.933000E-5,0.000642
1.934000E-5,0.000591
1.935000E-5,0.000541
1.936000E-5,0.000563
1.937000E-5,0.000506
1.938000E-5,0.000499
1.939000E-5,0.000542
1.940000E-5,0.000518
1.941000E-5,0.000530
1.942000E-5,0.000570
1.943000E-5,0.000592
1.944000E-5,0.000578
1.945000E-5,0.000520
1.946000E-5,0.000477
1.947000E-5,0.000472
1.948000E-5,0.000422
1.949000E-5,0.000346
1.950000E-5,0.000343
1.951000E-5,0.000354
1.952000E-5,0.000286
1.953000E-5,0.000241
1.954000E-5,0.000183
1.955000E-5,0.000120
1.956000E-5,0.000144
1.957000E-5,0.000160
1.958000E-5,0.000112
1.959000E-5,0.000100
1.960000E-5,0.000132
1.961000E-5,0.000126
1.962000E-5,0.000121
1.963000E-5,6.562195E-5
1.964000E-5,-2.345360E-5
1.965000E-5,-7.352648E-5
1.966000E-5,-0.000122
1.967000E-5,-0.000175
1.968000E-5,-0.000247
1.969000E-5,-0.000338
1.970000E-5,-0.000368
1.971000E-5,-0.000425
1.972000E-5,-0.000536
1.973000E-5,-0.000627
1.974000E-5,-0.000679
1.975000E-5,-0.000707
1.976000E-5,-0.000703
1.977000E-5,-0.000642
1.978000E-5,-0.000532
1.979000E-5,-0.000432
1.980000E-5,-0.000379
1.981000E-5,-0.000312
1.982000E-5,-0.000326
1.983000E-5,-0.000374
1.984000E-5,-0.000349
1.985000E-5,-0.000346
1.986000E-5,-0.000406
1.987000E-5,-0.000478
1.988000E-5,-0.000553
1.989000E-5,-0.000596
1.990000E-5,-0.000609
1.991000E-5,-0.000570
1.992000E-5,-0.000531
1.993000E-5,-0.000522
1.994000E-5,-0.000490
1.995000E-5,-0.000502
1.996000E-5,-0.000499
1.997000E-5,-0.000545
1.998000E-5,-0.000524
1.999000E-5,-0.000460
2.000000E-5,-0.000433
2.001000E-5,-0.000322
2.002000E-5,-0.000263
2.003000E-5,-0.000264
2.004000E-5,-0.000321
2.005000E-5,-0.000397
2.006000E-5,-0.000370
2.007000E-5,-0.000350
2.008000E-5,-0.000316
2.009000E-5,-0.000290
2.010000E-5,-0.000344
2.011000E-5,-0.000373
2.012000E-5,-0.000379
2.013000E-5,-0.000277
2.014000E-5,-0.000136
2.015000E-5,-7.825723E-5
2.016000E-5,-5.825633E-5
2.017000E-5,-5.317328E-5
2.018000E-5,-5.532991E-5
2.019000E-5,-3.591899E-5
2.020000E-5,2.563327E-5
2.021000E-5,9.913599E-5
2.022000E-5,0.000170
2.023000E-5,0.000216
2.024000E-5,0.000210
2.025000E-5,0.000233
2.026000E-5,0.000233
2.027000E-5,0.000198
2.028000E-5,0.000177
2.029000E-5,0.000128
2.030000E-5,8.134412E-5
2.031000E-5,0.000114
2.032000E-5,0.000125
2.033000E-5,7.015223E-5
2.034000E-5,6.748141E-5
2.035000E-5,7.907283E-5
2.036000E-5,7.584475E-5
2.037000E-5,2.981459E-5
2.038000E-5,-2.882639E-5
2.039000E-5,-2.104664E-5
2.040000E-5,-1.352217E-5
2.041000E-5,5.081679E-5
2.042000E-5,0.000134
2.043000E-5,0.000150
2.044000E-5,0.000129
2.045000E-5,0.000109
2.046000E-5,0.000139
2.047000E-5,0.000176
2.048000E-5,0.000182
2.049000E-5,0.000201
2.050000E-5,0.000213
2.051000E-5,0.000181
2.052000E-5,0.000186
2.053000E-5,0.000183
2.054000E-5,0.000158
2.055000E-5,0.000163
2.056000E-5,0.000174
2.057000E-5,0.000192
2.058000E-5,0.000159
2.059000E-5,0.000113
2.060000E-5,0.000132
2.061000E-5,0.000157
2.062000E-5,8.197300E-5
2.063000E-5,-3.365091E-5
2.064000E-5,-2.366593E-5
2.065000E-5,7.388221E-6
2.066000E-5,1.587974E-5
2.067000E-5,-4.730757E-5
2.068000E-5,-7.241326E-5
2.069000E-5,-3.940568E-5
2.070000E-5,-0.000115
2.071000E-5,-0.000201
2.072000E-5,-0.000305
2.073000E-5,-0.000334
2.074000E-5,-0.000290
2.075000E-5,-0.000304
2.076000E-5,-0.000324
2.077000E-5,-0.000322
2.078000E-5,-0.000283
2.079000E-5,-0.000238
2.080000E-5,-0.000181
2.081000E-5,-0.000118
2.082000E-5,-0.000107
2.083000E-5,-0.000132
2.084000E-5,-0.000156
2.085000E-5,-0.000157
2.086000E-5,-0.000137
2.087000E-5,-0.000131
2.088000E-5,-0.000133
2.089000E-5,-0.000134
2.090000E-5,-0.000164
2.091000E-5,-0.000206
2.092000E-5,-0.000247
2.093000E-5,-0.000286
2.094000E-5,-0.000294
2.095000E-5,-0.000280
2.096000E-5,-0.000238
2.097000E-5,-0.000190
2.098000E-5,-0.000157
2.099000E-5,-0.000154
2.100000E-5,-0.000173
2.101000E-5,-0.000190
2.102000E-5,-0.000149
2.103000E-5,-0.000110
2.104000E-5,-0.000122
2.105000E-5,-0.000119
2.106000E-5,-6.584678E-5
2.107000E-5,-4.319109E-5
2.108000E-5,-8.551284E-5
2.109000E-5,-7.619791E-5
2.110000E-5,-3.857359E-5
2.111000E-5,4.052217E-5
2.112000E-5,9.522612E-5
2.113000E-5,9.068613E-5
2.114000E-5,5.050359E-5
2.115000E-5,-1.680622E-5
2.116000E-5,-6.019712E-5
2.117000E-5,-3.768302E-5
2.118000E-5,1.259232E-5
2.119000E-5,1.818367E-5
2.120000E-5,-1.213006E-5
2.121000E-5,-9.837520E-5
2.122000E-5,-0.000231
2.123000E-5,-0.000309
2.124000E-5,-0.000305
2.125000E-5,-0.000286
2.126000E-5,-0.000324
2.127000E-5,-0.000325
2.128000E-5,-0.000262
2.129000E-5,-0.000271
2.130000E-5,-0.000301
2.131000E-5,-0.000351
2.132000E-5,-0.000434
2.133000E-5,-0.000464
2.134000E-5,-0.000492
2.135000E-5,-0.000525
2.136000E-5,-0.000534
2.137000E-5,-0.000564
2.138000E-5,-0.000599
2.139000E-5,-0.000646
2.140000E-5,-0.000669
2.141000E-5,-0.000669
2.142000E-5,-0.000667
2.143000E-5,-0.000665
2.144000E-5,-0.000690
2.145000E-5,-0.000742
2.146000E-5,-0.000755
2.147000E-5,-0.000766
2.148000E-5,-0.000833
2.149000E-5,-0.000910
2.150000E-5,-0.000998
2.151000E-5,-0.001044
2.152000E-5,-0.001088
2.153000E-5,-0.001142
2.154000E-5,-0.001193
2.155000E-5,-0.001297
2.156000E-5,-0.001403
2.157000E-5,-0.001488
2.158000E-5,-0.001588
2.159000E-5,-0.001740
2.160000E-5,-0.001884
2.161000E-5,-0.001955
2.162000E-5,-0.002049
2.163000E-5,-0.002143
2.164000E-5,-0.002224
2.165000E-5,-0.002348
2.166000E-5,-0.002492
2.167000E-5,-0.002606
2.168000E-5,-0.002697
2.169000E-5,-0.002823
2.170000E-5,-0.002969
2.171000E-5,-0.003091
2.172000E-5,-0.003224
2.173000E-5,-0.003470
2.174000E-5,-0.003743
2.175000E-5,-0.003965
2.176000E-5,-0.004194
2.177000E-5,-0.004443
2.178000E-5,-0.004741
2.179000E-5,-0.005049
2.180000E-5,-0.005323
2.181000E-5,-0.005601
2.182000E-5,-0.005937
2.183000E-5,-0.006338
2.184000E-5,-0.006693
2.185000E-5,-0.007024
2.186000E-5,-0.007439
2.187000E-5,-0.007913
2.188000E-5,-0.008422
2.189000E-5,-0.008948
2.190000E-5,-0.009591
2.191000E-5,-0.010309
2.192000E-5,-0.011077
2.193000E-5,-0.011972
2.194000E-5,-0.012857
2.195000E-5,-0.013768
2.196000E-5,-0.014745
2.197000E-5,-0.015770
2.198000E-5,-0.016819
2.199000E-5,-0.017817
2.200000E-5,-0.018779
2.201000E-5,-0.019718
2.202000E-5,-0.020657
2.203000E-5,-0.021636
2.204000E-5,-0.022731
2.205000E-5,-0.023986
2.206000E-5,-0.025378
2.207000E-5,-0.026914
2.208000E-5,-0.028623
2.209000E-5,-0.030482
2.210000E-5,-0.032460
2.211000E-5,-0.034613
2.212000E-5,-0.036941
2.213000E-5,-0.039496
2.214000E-5,-0.042330
2.215000E-5,-0.045593
2.216000E-5,-0.049271
2.217000E-5,-0.053207
2.218000E-5,-0.057408
2.219000E-5,-0.061792
2.220000E-5,-0.066382
2.221000E-5,-0.071262
2.222000E-5,-0.076409
2.223000E-5,-0.081874
2.224000E-5,-0.087823
2.225000E-5,-0.094250
2.226000E-5,-0.100979
2.227000E-5,-0.107958
2.228000E-5,-0.115289
2.229000E-5,-0.123005
2.230000E-5,-0.131101
2.231000E-5,-0.139543
2.232000E-5,-0.148391
2.233000E-5,-0.157702
2.234000E-5,-0.167465
2.235000E-5,-0.177763
2.236000E-5,-0.188553
2.237000E-5,-0.199736
2.238000E-5,-0.211301
2.239000E-5,-0.223246
2.240000E-5,-0.235614
2.241000E-5,-0.248494
2.242000E-5,-0.261890
2.243000E-5,-0.275674
2.244000E-5,-0.289920
2.245000E-5,-0.304716
2.246000E-5,-0.319990
2.247000E-5,-0.335615
2.248000E-5,-0.351548
2.249000E-5,-0.367915
2.250000E-5,-0.384605
2.251000E-5,-0.401451
2.252000E-5,-0.418563
2.253000E-5,-0.435985
2.254000E-5,-0.453662
2.255000E-5,-0.471524
2.256000E-5,-0.489505
2.257000E-5,-0.507668
2.258000E-5,-0.526027
2.259000E-5,-0.544447
2.260000E-5,-0.562853
2.261000E-5,-0.581226
2.262000E-5,-0.599509
2.263000E-5,-0.617748
2.264000E-5,-0.636067
2.265000E-5,-0.654278
2.266000E-5,-0.672149
2.267000E-5,-0.689736
2.268000E-5,-0.707038
2.269000E-5,-0.723966
2.270000E-5,-0.740486
2.271000E-5,-0.756618
2.272000E-5,-0.772342
2.273000E-5,-0.787615
2.274000E-5,-0.802350
2.275000E-5,-0.816473
2.276000E-5,-0.829992
2.277000E-5,-0.842909
2.278000E-5,-0.855090
2.279000E-5,-0.866430
2.280000E-5,-0.876927
2.281000E-5,-0.886490
2.282000E-5,-0.895103
2.283000E-5,-0.902830
2.284000E-5,-0.909586
2.285000E-5,-0.915380
2.286000E-5,-0.920248
2.287000E-5,-0.924009
2.288000E-5,-0.926627
2.289000E-5,-0.928075
2.290000E-5,-0.928267
2.291000E-5,-0.927234
2.292000E-5,-0.924902
2.293000E-5,-0.921237
2.294000E-5,-0.916280
2.295000E-5,-0.910007
2.296000E-5,-0.902414
2.297000E-5,-0.893446
2.298000E-5,-0.882969
2.299000E-5,-0.871012
2.300000E-5,-0.857462
2.301000E-5,-0.842314
2.302000E-5,-0.825687
2.303000E-5,-0.807503
2.304000E-5,-0.787813
2.305000E-5,-0.766597
2.306000E-5,-0.743800
2.307000E-5,-0.719296
2.308000E-5,-0.693079
2.309000E-5,-0.665287
2.310000E-5,-0.635782
2.311000E-5,-0.604470
2.312000E-5,-0.571440
2.313000E-5,-0.536721
2.314000E-5,-0.500264
2.315000E-5,-0.461978
2.316000E-5,-0.421830
2.317000E-5,-0.379833
2.318000E-5,-0.336040
2.319000E-5,-0.290507
2.320000E-5,-0.243298
2.321000E-5,-0.194385
2.322000E-5,-0.143513
2.323000E-5,-0.090656
2.324000E-5,-0.035983
2.325000E-5,0.020696
2.326000E-5,0.079404
2.327000E-5,0.139784
2.328000E-5,0.201714
2.329000E-5,0.265249
2.330000E-5,0.330503
2.331000E-5,0.397608
2.332000E-5,0.466416
2.333000E-5,0.536670
2.334000E-5,0.608300
2.335000E-5,0.681217
2.336000E-5,0.755394
2.337000E-5,0.831057
2.338000E-5,0.908103
2.339000E-5,0.986041
2.340000E-5,1.064504
2.341000E-5,1.143485
2.342000E-5,1.223129
2.343000E-5,1.303109
2.344000E-5,1.382996
2.345000E-5,1.462478
2.346000E-5,1.541346
2.347000E-5,1.619444
2.348000E-5,1.696301
2.349000E-5,1.771188
2.350000E-5,1.843376
2.351000E-5,1.912318
2.352000E-5,1.977365
2.353000E-5,2.037945
2.354000E-5,2.093654
2.355000E-5,2.144027
2.356000E-5,2.189013
2.357000E-5,2.228685
2.358000E-5,2.263107
2.359000E-5,2.292568
2.360000E-5,2.317387
2.361000E-5,2.337723
2.362000E-5,2.353720
2.363000E-5,2.365548
2.364000E-5,2.373250
2.365000E-5,2.377003
2.366000E-5,2.377012
2.367000E-5,2.373372
2.368000E-5,2.366167
2.369000E-5,2.355525
2.370000E-5,2.341641
2.371000E-5,2.324613
2.372000E-5,2.304576
2.373000E-5,2.281702
2.374000E-5,2.256159
2.375000E-5,2.228086
2.376000E-5,2.197563
2.377000E-5,2.164685
2.378000E-5,2.129619
2.379000E-5,2.092585
2.380000E-5,2.053671
2.381000E-5,2.012965
2.382000E-5,1.970673
2.383000E-5,1.926893
2.384000E-5,1.881710
2.385000E-5,1.835304
2.386000E-5,1.787735
2.387000E-5,1.739163
2.388000E-5,1.689729
2.389000E-5,1.639455
2.390000E-5,1.588450
2.391000E-5,1.536864
2.392000E-5,1.484798
2.393000E-5,1.432358
2.394000E-5,1.379673
2.395000E-5,1.326729
2.396000E-5,1.273666
2.397000E-5,1.220642
2.398000E-5,1.167661
2.399000E-5,1.114837
2.400000E-5,1.062255
2.401000E-5,1.009972
2.402000E-5,0.958087
2.403000E-5,0.906616
2.404000E-5,0.855594
2.405000E-5,0.805184
2.406000E-5,0.755385
2.407000E-5,0.706215
2.408000E-5,0.657734
2.409000E-5,0.610050
2.410000E-5,0.563256
2.411000E-5,0.517335
2.412000E-5,0.472254
2.413000E-5,0.428095
2.414000E-5,0.384928
2.415000E-5,0.342684
2.416000E-5,0.301415
2.417000E-5,0.261206
2.418000E-5,0.222101
2.419000E-5,0.184149
2.420000E-5,0.147324
2.421000E-5,0.111582
2.422000E-5,0.076970
2.423000E-5,0.043483
2.424000E-5,0.011175
2.425000E-5,-0.019934
2.426000E-5,-0.049889
2.427000E-5,-0.078686
2.428000E-5,-0.106346
2.429000E-5,-0.132846
2.430000E-5,-0.158266
2.431000E-5,-0.182843
2.432000E-5,-0.207283
2.433000E-5,-0.232773
2.434000E-5,-0.260818
2.435000E-5,-0.293128
2.436000E-5,-0.331072
2.437000E-5,-0.375653
2.438000E-5,-0.427447
2.439000E-5,-0.486600
2.440000E-5,-0.552796
2.441000E-5,-0.625268
2.442000E-5,-0.703255
2.443000E-5,-0.786370
2.444000E-5,-0.874036
2.445000E-5,-0.965914
2.446000E-5,-1.061834
2.447000E-5,-1.161454
2.448000E-5,-1.264648
2.449000E-5,-1.370838
2.450000E-5,-1.479356
2.451000E-5,-1.590105
2.452000E-5,-1.702731
2.453000E-5,-1.816646
2.454000E-5,-1.931528
2.455000E-5,-2.046720
2.456000E-5,-2.161496
2.457000E-5,-2.275089
2.458000E-5,-2.386180
2.459000E-5,-2.493294
2.460000E-5,-2.595005
2.461000E-5,-2.689943
2.462000E-5,-2.777298
2.463000E-5,-2.856881
2.464000E-5,-2.928741
2.465000E-5,-2.992954
2.466000E-5,-3.049673
2.467000E-5,-3.099324
2.468000E-5,-3.142292
2.469000E-5,-3.178785
2.470000E-5,-3.209007
2.471000E-5,-3.233138
2.472000E-5,-3.251372
2.473000E-5,-3.263863
2.474000E-5,-3.270819
2.475000E-5,-3.272455
2.476000E-5,-3.268945
2.477000E-5,-3.260462
2.478000E-5,-3.247162
2.479000E-5,-3.229299
2.480000E-5,-3.207142
2.481000E-5,-3.180820
2.482000E-5,-3.150493
2.483000E-5,-3.116361
2.484000E-5,-3.078656
2.485000E-5,-3.037567
2.486000E-5,-2.993206
2.487000E-5,-2.945811
2.488000E-5,-2.895640
2.489000E-5,-2.842902
2.490000E-5,-2.787666
2.491000E-5,-2.730019
2.492000E-5,-2.670273
2.493000E-5,-2.608671
2.494000E-5,-2.545342
2.495000E-5,-2.480339
2.496000E-5,-2.413833
2.497000E-5,-2.346076
2.498000E-5,-2.277198
2.499000E-5,-2.207353
2.500000E-5,-2.136621
2.501000E-5,-2.065153
2.502000E-5,-1.993164
2.503000E-5,-1.920758
2.504000E-5,-1.848089
2.505000E-5,-1.775181
2.506000E-5,-1.702106
2.507000E-5,-1.629104
2.508000E-5,-1.556321
2.509000E-5,-1.483898
2.510000E-5,-1.411841
2.511000E-5,-1.340155
2.512000E-5,-1.269031
2.513000E-5,-1.198615
2.514000E-5,-1.128975
2.515000E-5,-1.060105
2.516000E-5,-0.992063
2.517000E-5,-0.925022
2.518000E-5,-0.859107
2.519000E-5,-0.794293
2.520000E-5,-0.730589
2.521000E-5,-0.668060
2.522000E-5,-0.606781
2.523000E-5,-0.546901
2.524000E-5,-0.488346
2.525000E-5,-0.431144
2.526000E-5,-0.375440
2.527000E-5,-0.321195
2.528000E-5,-0.268459
2.529000E-5,-0.217231
2.530000E-5,-0.167539
2.531000E-5,-0.119477
2.532000E-5,-0.072952
2.533000E-5,-0.028006
2.534000E-5,0.015348
2.535000E-5,0.057324
2.536000E-5,0.098300
2.537000E-5,0.139169
2.538000E-5,0.181442
2.539000E-5,0.227084
2.540000E-5,0.277827
2.541000E-5,0.334651
2.542000E-5,0.397820
2.543000E-5,0.466704
2.544000E-5,0.540390
2.545000E-5,0.618153
2.546000E-5,0.699228
2.547000E-5,0.782953
2.548000E-5,0.869009
2.549000E-5,0.957375
2.550000E-5,1.047885
2.551000E-5,1.140277
2.552000E-5,1.234618
2.553000E-5,1.330751
2.554000E-5,1.427864
2.555000E-5,1.525669
2.556000E-5,1.624281
2.557000E-5,1.723176
2.558000E-5,1.821790
2.559000E-5,1.920195
2.560000E-5,2.018281
2.561000E-5,2.115281
2.562000E-5,2.210607
2.563000E-5,2.304336
2.564000E-5,2.396455
2.565000E-5,2.486144
2.566000E-5,2.572977
2.567000E-5,2.657061
2.568000E-5,2.738180
2.569000E-5,2.815693
2.570000E-5,2.888948
2.571000E-5,2.957575
2.572000E-5,3.021176
2.573000E-5,3.079325
2.574000E-5,3.131449
2.575000E-5,3.177111
2.576000E-5,3.216166
2.577000E-5,3.248598
2.578000E-5,3.274510
2.579000E-5,3.294146
2.580000E-5,3.307892
2.581000E-5,3.315988
2.582000E-5,3.318567
2.583000E-5,3.315957
2.584000E-5,3.308411
2.585000E-5,3.296017
2.586000E-5,3.278951
2.587000E-5,3.257563
2.588000E-5,3.231954
2.589000E-5,3.202190
2.590000E-5,3.168593
2.591000E-5,3.131343
2.592000E-5,3.090653
2.593000E-5,3.046558
2.594000E-5,2.999259
2.595000E-5,2.949069
2.596000E-5,2.896151
2.597000E-5,2.840738
2.598000E-5,2.782994
2.599000E-5,2.723010
2.600000E-5,2.661032
2.601000E-5,2.597316
2.602000E-5,2.531804
2.603000E-5,2.464692
2.604000E-5,2.396301
2.605000E-5,2.326684
2.606000E-5,2.256045
2.607000E-5,2.184565
2.608000E-5,2.112302
2.609000E-5,2.039447
2.610000E-5,1.966191
2.611000E-5,1.892541
2.612000E-5,1.818648
2.613000E-5,1.744713
2.614000E-5,1.670782
2.615000E-5,1.596947
2.616000E-5,1.523327
2.617000E-5,1.450063
2.618000E-5,1.377270
2.619000E-5,1.305028
2.620000E-5,1.233438
2.621000E-5,1.162592
2.622000E-5,1.092502
2.623000E-5,1.023305
2.624000E-5,0.955097
2.625000E-5,0.887919
2.626000E-5,0.821829
2.627000E-5,0.756918
2.628000E-5,0.693250
2.629000E-5,0.630822
2.630000E-5,0.569732
2.631000E-5,0.510042
2.632000E-5,0.451792
2.633000E-5,0.395011
2.634000E-5,0.339627
2.635000E-5,0.285737
2.636000E-5,0.233434
2.637000E-5,0.182677
2.638000E-5,0.133464
2.639000E-5,0.085788
2.640000E-5,0.039621
2.641000E-5,-0.005148
2.642000E-5,-0.048573
2.643000E-5,-0.090766
2.644000E-5,-0.131856
2.645000E-5,-0.172119
2.646000E-5,-0.211896
2.647000E-5,-0.251314
2.648000E-5,-0.290517
2.649000E-5,-0.329773
2.650000E-5,-0.369164
2.651000E-5,-0.408793
2.652000E-5,-0.448776
2.653000E-5,-0.489066
2.654000E-5,-0.529704
2.655000E-5,-0.570672
2.656000E-5,-0.612013
2.657000E-5,-0.653809
2.658000E-5,-0.695955
2.659000E-5,-0.738252
2.660000E-5,-0.780622
2.661000E-5,-0.823118
2.662000E-5,-0.865655
2.663000E-5,-0.908172
2.664000E-5,-0.950690
2.665000E-5,-0.993065
2.666000E-5,-1.035179
2.667000E-5,-1.076984
2.668000E-5,-1.118262
2.669000E-5,-1.158848
2.670000E-5,-1.198868
2.671000E-5,-1.238352
2.672000E-5,-1.277203
2.673000E-5,-1.315305
2.674000E-5,-1.352583
2.675000E-5,-1.389039
2.676000E-5,-1.424626
2.677000E-5,-1.459227
2.678000E-5,-1.492612
2.679000E-5,-1.524589
2.680000E-5,-1.555337
2.681000E-5,-1.584884
2.682000E-5,-1.613129
2.683000E-5,-1.640311
2.684000E-5,-1.666270
2.685000E-5,-1.690555
2.686000E-5,-1.713312
2.687000E-5,-1.734562
2.688000E-5,-1.754127
2.689000E-5,-1.772069
2.690000E-5,-1.788312
2.691000E-5,-1.802774
2.692000E-5,-1.815590
2.693000E-5,-1.826880
2.694000E-5,-1.836604
2.695000E-5,-1.844791
2.696000E-5,-1.851442
2.697000E-5,-1.856241
2.698000E-5,-1.858948
2.699000E-5,-1.859751
2.700000E-5,-1.858868
2.701000E-5,-1.856272
2.702000E-5,-1.851837
2.703000E-5,-1.845601
2.704000E-5,-1.837749
2.705000E-5,-1.828288
2.706000E-5,-1.817213
2.707000E-5,-1.804581
2.708000E-5,-1.790361
2.709000E-5,-1.774471
2.710000E-5,-1.756903
2.711000E-5,-1.737812
2.712000E-5,-1.717276
2.713000E-5,-1.695410
2.714000E-5,-1.672159
2.715000E-5,-1.647527
2.716000E-5,-1.621667
2.717000E-5,-1.594558
2.718000E-5,-1.566222
2.719000E-5,-1.536729
2.720000E-5,-1.506117
2.721000E-5,-1.474446
2.722000E-5,-1.441690
2.723000E-5,-1.407933
2.724000E-5,-1.373279
2.725000E-5,-1.337851
2.726000E-5,-1.301631
2.727000E-5,-1.264634
2.728000E-5,-1.227011
2.729000E-5,-1.188729
2.730000E-5,-1.149935
2.731000E-5,-1.110602
2.732000E-5,-1.070710
2.733000E-5,-1.030436
2.734000E-5,-0.989791
2.735000E-5,-0.948781
2.736000E-5,-0.907496
2.737000E-5,-0.866084
2.738000E-5,-0.824569
2.739000E-5,-0.782884
2.740000E-5,-0.741079
2.741000E-5,-0.699180
2.742000E-5,-0.657135
2.743000E-5,-0.615042
2.744000E-5,-0.572940
2.745000E-5,-0.530851
2.746000E-5,-0.488927
2.747000E-5,-0.447254
2.748000E-5,-0.405817
2.749000E-5,-0.364706
2.750000E-5,-0.324009
2.751000E-5,-0.283638
2.752000E-5,-0.243544
2.753000E-5,-0.203786
2.754000E-5,-0.164455
2.755000E-5,-0.125512
2.756000E-5,-0.086916
2.757000E-5,-0.048794
2.758000E-5,-0.011201
2.759000E-5,0.025932
2.760000E-5,0.062614
2.761000E-5,0.098732
2.762000E-5,0.134303
2.763000E-5,0.169206
2.764000E-5,0.203360
2.765000E-5,0.236721
2.766000E-5,0.269271
2.767000E-5,0.301156
2.768000E-5,0.332315
2.769000E-5,0.362647
2.770000E-5,0.392065
2.771000E-5,0.420650
2.772000E-5,0.448467
2.773000E-5,0.475465
2.774000E-5,0.501519
2.775000E-5,0.526617
2.776000E-5,0.550768
2.777000E-5,0.573936
2.778000E-5,0.596198
2.779000E-5,0.617533
2.780000E-5,0.637792
2.781000E-5,0.656948
2.782000E-5,0.675054
2.783000E-5,0.691994
2.784000E-5,0.707754
2.785000E-5,0.722434
2.786000E-5,0.736050
2.787000E-5,0.748628
2.788000E-5,0.760172
2.789000E-5,0.770625
2.790000E-5,0.779938
2.791000E-5,0.788112
2.792000E-5,0.795176
2.793000E-5,0.801138
2.794000E-5,0.805980
2.795000E-5,0.809730
2.796000E-5,0.812513
2.797000E-5,0.814291
2.798000E-5,0.814998
2.799000E-5,0.814672
2.800000E-5,0.813332
2.801000E-5,0.811144
2.802000E-5,0.808086
2.803000E-5,0.804103
2.804000E-5,0.799193
2.805000E-5,0.793368
2.806000E-5,0.786729
2.807000E-5,0.779245
2.808000E-5,0.770951
2.809000E-5,0.761962
2.810000E-5,0.752275
2.811000E-5,0.741887
2.812000E-5,0.730911
2.813000E-5,0.719374
2.814000E-5,0.707312
2.815000E-5,0.694743
2.816000E-5,0.681648
2.817000E-5,0.668067
2.818000E-5,0.654031
2.819000E-5,0.639566
2.820000E-5,0.624744
2.821000E-5,0.609638
2.822000E-5,0.594218
2.823000E-5,0.578504
2.824000E-5,0.562518
2.825000E-5,0.546287
2.826000E-5,0.529782
2.827000E-5,0.513073
2.828000E-5,0.496331
2.829000E-5,0.479552
2.830000E-5,0.462780
2.831000E-5,0.446061
2.832000E-5,0.429405
2.833000E-5,0.412886
2.834000E-5,0.396459
2.835000E-5,0.380160
2.836000E-5,0.363969
2.837000E-5,0.347913
2.838000E-5,0.332039
2.839000E-5,0.316282
2.840000E-5,0.300753
2.841000E-5,0.285539
2.842000E-5,0.270646
2.843000E-5,0.256005
2.844000E-5,0.241624
2.845000E-5,0.227543
2.846000E-5,0.213716
2.847000E-5,0.200248
2.848000E-5,0.187160
2.849000E-5,0.174438
2.850000E-5,0.162116
2.851000E-5,0.150163
2.852000E-5,0.138598
2.853000E-5,0.127546
2.854000E-5,0.117012
2.855000E-5,0.106828
2.856000E-5,0.097178
2.857000E-5,0.088126
2.858000E-5,0.079536
2.859000E-5,0.071405
2.860000E-5,0.063728
2.861000E-5,0.056586
2.862000E-5,0.049956
2.863000E-5,0.043794
2.864000E-5,0.038113
2.865000E-5,0.032889
2.866000E-5,0.028200
2.867000E-5,0.024005
2.868000E-5,0.020278
2.869000E-5,0.017092
2.870000E-5,0.014454
2.871000E-5,0.012356
2.872000E-5,0.010793
2.873000E-5,0.009878
2.874000E-5,0.009596
2.875000E-5,0.009879
2.876000E-5,0.010672
2.877000E-5,0.011918
2.878000E-5,0.013706
2.879000E-5,0.016006
2.880000E-5,0.018752
2.881000E-5,0.022010
2.882000E-5,0.025898
2.883000E-5,0.030394
2.884000E-5,0.035461
2.885000E-5,0.041141
2.886000E-5,0.047276
2.887000E-5,0.053666
2.888000E-5,0.060372
2.889000E-5,0.067428
2.890000E-5,0.074853
2.891000E-5,0.082679
2.892000E-5,0.090844
2.893000E-5,0.099443
2.894000E-5,0.108483
2.895000E-5,0.117820
2.896000E-5,0.127334
2.897000E-5,0.137048
2.898000E-5,0.147054
2.899000E-5,0.157353
2.900000E-5,0.167926
2.901000E-5,0.178782
2.902000E-5,0.189751
2.903000E-5,0.200669
2.904000E-5,0.211642
2.905000E-5,0.222681
2.906000E-5,0.233665
2.907000E-5,0.244615
2.908000E-5,0.255651
2.909000E-5,0.266667
2.910000E-5,0.277512
2.911000E-5,0.288238
2.912000E-5,0.298842
2.913000E-5,0.309324
2.914000E-5,0.319724
2.915000E-5,0.329850
2.916000E-5,0.339697
2.917000E-5,0.349273
2.918000E-5,0.358438
2.919000E-5,0.367144
2.920000E-5,0.375409
2.921000E-5,0.383292
2.922000E-5,0.390796
2.923000E-5,0.397837
2.924000E-5,0.404393
2.925000E-5,0.410437
2.926000E-5,0.415978
2.927000E-5,0.421097
2.928000E-5,0.425809
2.929000E-5,0.429994
2.930000E-5,0.433521
2.931000E-5,0.436446
2.932000E-5,0.438771
2.933000E-5,0.440395
2.934000E-5,0.441290
2.935000E-5,0.441482
2.936000E-5,0.440890
2.937000E-5,0.439580
2.938000E-5,0.437587
2.939000E-5,0.434904
2.940000E-5,0.431496
2.941000E-5,0.427303
2.942000E-5,0.422461
2.943000E-5,0.416957
2.944000E-5,0.410739
2.945000E-5,0.403844
2.946000E-5,0.396179
2.947000E-5,0.387691
2.948000E-5,0.378382
2.949000E-5,0.368238
2.950000E-5,0.357342
2.951000E-5,0.345682
2.952000E-5,0.333255
2.953000E-5,0.320050
2.954000E-5,0.306032
2.955000E-5,0.291352
2.956000E-5,0.276050
2.957000E-5,0.260024
2.958000E-5,0.243274
2.959000E-5,0.225833
2.960000E-5,0.207609
2.961000E-5,0.188562
2.962000E-5,0.168828
2.963000E-5,0.148493
2.964000E-5,0.127553
2.965000E-5,0.106063
2.966000E-5,0.083969
2.967000E-5,0.061272
2.968000E-5,0.038043
2.969000E-5,0.014245
2.970000E-5,-0.010157
2.971000E-5,-0.035224
2.972000E-5,-0.060757
2.973000E-5,-0.086657
2.974000E-5,-0.112969
2.975000E-5,-0.139580
2.976000E-5,-0.166481
2.977000E-5,-0.193620
2.978000E-5,-0.220931
2.979000E-5,-0.248544
2.980000E-5,-0.276541
2.981000E-5,-0.304678
2.982000E-5,-0.332864
2.983000E-5,-0.361246
2.984000E-5,-0.389694
2.985000E-5,-0.418112
2.986000E-5,-0.446557
2.987000E-5,-0.475119
2.988000E-5,-0.503672
2.989000E-5,-0.532120
2.990000E-5,-0.560503
2.991000E-5,-0.588587
2.992000E-5,-0.616288
2.993000E-5,-0.643700
2.994000E-5,-0.670905
2.995000E-5,-0.697789
2.996000E-5,-0.724267
2.997000E-5,-0.750369
2.998000E-5,-0.776125
2.999000E-5,-0.801451
3.000000E-5,-0.826189
3.001000E-5,-0.850422
3.002000E-5,-0.874181
3.003000E-5,-0.897346
3.004000E-5,-0.919890
3.005000E-5,-0.941715
3.006000E-5,-0.962678
3.007000E-5,-0.982772
3.008000E-5,-1.001997
3.009000E-5,-1.020398
3.010000E-5,-1.038050
3.011000E-5,-1.054859
3.012000E-5,-1.070603
3.013000E-5,-1.085324
3.014000E-5,-1.099139
3.015000E-5,-1.111958
3.016000E-5,-1.123743
3.017000E-5,-1.134391
3.018000E-5,-1.143822
3.019000E-5,-1.152151
3.020000E-5,-1.159413
3.021000E-5,-1.165494
3.022000E-5,-1.170415
3.023000E-5,-1.174216
3.024000E-5,-1.176721
3.025000E-5,-1.177872
3.026000E-5,-1.177748
3.027000E-5,-1.176366
3.028000E-5,-1.173769
3.029000E-5,-1.169947
3.030000E-5,-1.164868
3.031000E-5,-1.158500
3.032000E-5,-1.150821
3.033000E-5,-1.141850
3.034000E-5,-1.131576
3.035000E-5,-1.119957
3.036000E-5,-1.107033
3.037000E-5,-1.092828
3.038000E-5,-1.077370
3.039000E-5,-1.060685
3.040000E-5,-1.042717
3.041000E-5,-1.023434
3.042000E-5,-1.002843
3.043000E-5,-0.981060
3.044000E-5,-0.958078
3.045000E-5,-0.933791
3.046000E-5,-0.908284
3.047000E-5,-0.881679
3.048000E-5,-0.854007
3.049000E-5,-0.825279
3.050000E-5,-0.795451
3.051000E-5,-0.764552
3.052000E-5,-0.732712
3.053000E-5,-0.699924
3.054000E-5,-0.666193
3.055000E-5,-0.631623
3.056000E-5,-0.596219
3.057000E-5,-0.559960
3.058000E-5,-0.522762
3.059000E-5,-0.484689
3.060000E-5,-0.445968
3.061000E-5,-0.406641
3.062000E-5,-0.366712
3.063000E-5,-0.326216
3.064000E-5,-0.285228
3.065000E-5,-0.243796
3.066000E-5,-0.201907
3.067000E-5,-0.159636
3.068000E-5,-0.117076
3.069000E-5,-0.074234
3.070000E-5,-0.031171
3.071000E-5,0.012073
3.072000E-5,0.055482
3.073000E-5,0.099010
3.074000E-5,0.142579
3.075000E-5,0.186019
3.076000E-5,0.229390
3.077000E-5,0.272713
3.078000E-5,0.315807
3.079000E-5,0.358608
3.080000E-5,0.401167
3.081000E-5,0.443355
3.082000E-5,0.485064
3.083000E-5,0.526326
3.084000E-5,0.566985
3.085000E-5,0.606910
3.086000E-5,0.646221
3.087000E-5,0.684987
3.088000E-5,0.722941
3.089000E-5,0.760011
3.090000E-5,0.796585
3.091000E-5,0.832548
3.092000E-5,0.867430
3.093000E-5,0.901375
3.094000E-5,0.934508
3.095000E-5,0.966606
3.096000E-5,0.997467
3.097000E-5,1.027138
3.098000E-5,1.055839
3.099000E-5,1.083503
3.100000E-5,1.109912
3.101000E-5,1.135193
3.102000E-5,1.159320
3.103000E-5,1.182049
3.104000E-5,1.203460
3.105000E-5,1.223683
3.106000E-5,1.242702
3.107000E-5,1.260390
3.108000E-5,1.276818
3.109000E-5,1.291978
3.110000E-5,1.305660
3.111000E-5,1.317775
3.112000E-5,1.328377
3.113000E-5,1.337518
3.114000E-5,1.345205
3.115000E-5,1.351514
3.116000E-5,1.356401
3.117000E-5,1.359732
3.118000E-5,1.361474
3.119000E-5,1.361720
3.120000E-5,1.360595
3.121000E-5,1.358145
3.122000E-5,1.354387
3.123000E-5,1.349304
3.124000E-5,1.342788
3.125000E-5,1.334803
3.126000E-5,1.325402
3.127000E-5,1.314587
3.128000E-5,1.302277
3.129000E-5,1.288504
3.130000E-5,1.273308
3.131000E-5,1.256758
3.132000E-5,1.238901
3.133000E-5,1.219757
3.134000E-5,1.199444
3.135000E-5,1.177932
3.136000E-5,1.155311
3.137000E-5,1.131551
3.138000E-5,1.106582
3.139000E-5,1.080543
3.140000E-5,1.053444
3.141000E-5,1.025343
3.142000E-5,0.996294
3.143000E-5,0.966333
3.144000E-5,0.935513
3.145000E-5,0.903777
3.146000E-5,0.871179
3.147000E-5,0.837867
3.148000E-5,0.803883
3.149000E-5,0.769189
3.150000E-5,0.733796
3.151000E-5,0.697719
3.152000E-5,0.660961
3.153000E-5,0.623676
3.154000E-5,0.586040
3.155000E-5,0.548054
3.156000E-5,0.509662
3.157000E-5,0.470944
3.158000E-5,0.432016
3.159000E-5,0.392853
3.160000E-5,0.353404
3.161000E-5,0.313853
3.162000E-5,0.274374
3.163000E-5,0.234888
3.164000E-5,0.195394
3.165000E-5,0.155939
3.166000E-5,0.116504
3.167000E-5,0.077177
3.168000E-5,0.038088
3.169000E-5,-0.000806
3.170000E-5,-0.039450
3.171000E-5,-0.077773
3.172000E-5,-0.115763
3.173000E-5,-0.153238
3.174000E-5,-0.190173
3.175000E-5,-0.226659
3.176000E-5,-0.262677
3.177000E-5,-0.298197
3.178000E-5,-0.333175
3.179000E-5,-0.367519
3.180000E-5,-0.401178
3.181000E-5,-0.434182
3.182000E-5,-0.466491
3.183000E-5,-0.498087
3.184000E-5,-0.528847
3.185000E-5,-0.558662
3.186000E-5,-0.587721
3.187000E-5,-0.616107
3.188000E-5,-0.643699
3.189000E-5,-0.670365
3.190000E-5,-0.696103
3.191000E-5,-0.721101
3.192000E-5,-0.745312
3.193000E-5,-0.768650
3.194000E-5,-0.791123
3.195000E-5,-0.812566
3.196000E-5,-0.832948
3.197000E-5,-0.852404
3.198000E-5,-0.871083
3.199000E-5,-0.888975
3.200000E-5,-0.905890
3.201000E-5,-0.921796
3.202000E-5,-0.936754
3.203000E-5,-0.950784
3.204000E-5,-0.963963
3.205000E-5,-0.976238
3.206000E-5,-0.987572
3.207000E-5,-0.997926
3.208000E-5,-1.007321
3.209000E-5,-1.015877
3.210000E-5,-1.023591
3.211000E-5,-1.030553
3.212000E-5,-1.036751
3.213000E-5,-1.042098
3.214000E-5,-1.046694
3.215000E-5,-1.050476
3.216000E-5,-1.053324
3.217000E-5,-1.055254
3.218000E-5,-1.056377
3.219000E-5,-1.056955
3.220000E-5,-1.056958
3.221000E-5,-1.056036
3.222000E-5,-1.054239
3.223000E-5,-1.051680
3.224000E-5,-1.048257
3.225000E-5,-1.044043
3.226000E-5,-1.039186
3.227000E-5,-1.033712
3.228000E-5,-1.027651
3.229000E-5,-1.021100
3.230000E-5,-1.014021
3.231000E-5,-1.006361
3.232000E-5,-0.998130
3.233000E-5,-0.989385
3.234000E-5,-0.980215
3.235000E-5,-0.970621
3.236000E-5,-0.960556
3.237000E-5,-0.950009
3.238000E-5,-0.939036
3.239000E-5,-0.927685
3.240000E-5,-0.915957
3.241000E-5,-0.903730
3.242000E-5,-0.891010
3.243000E-5,-0.877980
3.244000E-5,-0.864656
3.245000E-5,-0.851177
3.246000E-5,-0.837534
3.247000E-5,-0.823597
3.248000E-5,-0.809413
3.249000E-5,-0.795077
3.250000E-5,-0.780561
3.251000E-5,-0.765856
3.252000E-5,-0.750994
3.253000E-5,-0.735961
3.254000E-5,-0.720864
3.255000E-5,-0.705693
3.256000E-5,-0.690396
3.257000E-5,-0.675067
3.258000E-5,-0.659736
3.259000E-5,-0.644343
3.260000E-5,-0.628963
3.261000E-5,-0.613555
3.262000E-5,-0.598088
3.263000E-5,-0.582708
3.264000E-5,-0.567387
3.265000E-5,-0.552153
3.266000E-5,-0.536955
3.267000E-5,-0.521729
3.268000E-5,-0.506565
3.269000E-5,-0.491456
3.270000E-5,-0.476386
3.271000E-5,-0.461436
3.272000E-5,-0.446623
3.273000E-5,-0.431851
3.274000E-5,-0.417093
3.275000E-5,-0.402398
3.276000E-5,-0.387830
3.277000E-5,-0.373350
3.278000E-5,-0.358934
3.279000E-5,-0.344589
3.280000E-5,-0.330297
3.281000E-5,-0.316064
3.282000E-5,-0.301855
3.283000E-5,-0.287689
3.284000E-5,-0.273601
3.285000E-5,-0.259539
3.286000E-5,-0.245482
3.287000E-5,-0.231471
3.288000E-5,-0.217499
3.289000E-5,-0.203542
3.290000E-5,-0.189601
3.291000E-5,-0.175640
3.292000E-5,-0.161609
3.293000E-5,-0.147540
3.294000E-5,-0.133442
3.295000E-5,-0.119252
3.296000E-5,-0.104939
3.297000E-5,-0.090551
3.298000E-5,-0.076084
3.299000E-5,-0.061513
3.300000E-5,-0.046873
3.301000E-5,-0.032124
3.302000E-5,-0.017236
3.303000E-5,-0.002230
3.304000E-5,0.012844
3.305000E-5,0.028026
3.306000E-5,0.043387
3.307000E-5,0.058933
3.308000E-5,0.074668
3.309000E-5,0.090619
3.310000E-5,0.106780
3.311000E-5,0.123034
3.312000E-5,0.139488
3.313000E-5,0.156215
3.314000E-5,0.173108
3.315000E-5,0.190227
3.316000E-5,0.207674
3.317000E-5,0.225359
3.318000E-5,0.243175
3.319000E-5,0.261217
3.320000E-5,0.279450
3.321000E-5,0.297858
3.322000E-5,0.316494
3.323000E-5,0.335362
3.324000E-5,0.354588
3.325000E-5,0.374173
3.326000E-5,0.393866
3.327000E-5,0.413625
3.328000E-5,0.433638
3.329000E-5,0.453886
3.330000E-5,0.474273
3.331000E-5,0.494853
3.332000E-5,0.515732
3.333000E-5,0.536864
3.334000E-5,0.558074
3.335000E-5,0.579452
3.336000E-5,0.600975
3.337000E-5,0.622540
3.338000E-5,0.644296
3.339000E-5,0.666181
3.340000E-5,0.688079
3.341000E-5,0.710005
3.342000E-5,0.731882
3.343000E-5,0.753640
3.344000E-5,0.775387
3.345000E-5,0.797061
3.346000E-5,0.818631
3.347000E-5,0.840239
3.348000E-5,0.861913
3.349000E-5,0.883582
3.350000E-5,0.905063
3.351000E-5,0.926330
3.352000E-5,0.947300
3.353000E-5,0.967967
3.354000E-5,0.988430
3.355000E-5,1.008623
3.356000E-5,1.028453
3.357000E-5,1.047952
3.358000E-5,1.067175
3.359000E-5,1.085930
3.360000E-5,1.104248
3.361000E-5,1.122360
3.362000E-5,1.140131
3.363000E-5,1.157404
3.364000E-5,1.174141
3.365000E-5,1.190215
3.366000E-5,1.205555
3.367000E-5,1.220370
3.368000E-5,1.234708
3.369000E-5,1.248192
3.370000E-5,1.260812
3.371000E-5,1.272673
3.372000E-5,1.283835
3.373000E-5,1.294221
3.374000E-5,1.304092
3.375000E-5,1.313696
3.376000E-5,1.322428
3.377000E-5,1.329829
3.378000E-5,1.336115
3.379000E-5,1.341517
3.380000E-5,1.346009
3.381000E-5,1.349548
3.382000E-5,1.352133
3.383000E-5,1.354040
3.384000E-5,1.355333
3.385000E-5,1.355776
3.386000E-5,1.355092
3.387000E-5,1.353326
3.388000E-5,1.350704
3.389000E-5,1.347127
3.390000E-5,1.342523
3.391000E-5,1.337021
3.392000E-5,1.330663
3.393000E-5,1.323298
3.394000E-5,1.314848
3.395000E-5,1.305449
3.396000E-5,1.295089
3.397000E-5,1.283754
3.398000E-5,1.271519
3.399000E-5,1.258237
3.400000E-5,1.243889
3.401000E-5,1.228522
3.402000E-5,1.212083
3.403000E-5,1.194582
3.404000E-5,1.176111
3.405000E-5,1.156730
3.406000E-5,1.136366
3.407000E-5,1.115122
3.408000E-5,1.093072
3.409000E-5,1.070187
3.410000E-5,1.046590
3.411000E-5,1.022358
3.412000E-5,0.997559
3.413000E-5,0.972168
3.414000E-5,0.946188
3.415000E-5,0.919732
3.416000E-5,0.892872
3.417000E-5,0.865629
3.418000E-5,0.838045
3.419000E-5,0.810212
3.420000E-5,0.782182
3.421000E-5,0.753970
3.422000E-5,0.725576
3.423000E-5,0.697072
3.424000E-5,0.668479
3.425000E-5,0.639794
3.426000E-5,0.611093
3.427000E-5,0.582492
3.428000E-5,0.554026
3.429000E-5,0.525619
3.430000E-5,0.497284
3.431000E-5,0.469071
3.432000E-5,0.441053
3.433000E-5,0.413288
3.434000E-5,0.385668
3.435000E-5,0.358223
3.436000E-5,0.330981
3.437000E-5,0.303892
3.438000E-5,0.276949
3.439000E-5,0.250167
3.440000E-5,0.223610
3.441000E-5,0.197319
3.442000E-5,0.171281
3.443000E-5,0.145420
3.444000E-5,0.119721
3.445000E-5,0.094137
3.446000E-5,0.068677
3.447000E-5,0.043417
3.448000E-5,0.018312
3.449000E-5,-0.006642
3.450000E-5,-0.031369
3.451000E-5,-0.055838
3.452000E-5,-0.080028
3.453000E-5,-0.104013
3.454000E-5,-0.127968
3.455000E-5,-0.151952
3.456000E-5,-0.175691
3.457000E-5,-0.199120
3.458000E-5,-0.222301
3.459000E-5,-0.245243
3.460000E-5,-0.268012
3.461000E-5,-0.290557
3.462000E-5,-0.312994
3.463000E-5,-0.335215
3.464000E-5,-0.357050
3.465000E-5,-0.378508
3.466000E-5,-0.399734
3.467000E-5,-0.420824
3.468000E-5,-0.441645
3.469000E-5,-0.462159
3.470000E-5,-0.482354
3.471000E-5,-0.502273
3.472000E-5,-0.521961
3.473000E-5,-0.541403
3.474000E-5,-0.560585
3.475000E-5,-0.579436
3.476000E-5,-0.597976
3.477000E-5,-0.616223
3.478000E-5,-0.634123
3.479000E-5,-0.651620
3.480000E-5,-0.668643
3.481000E-5,-0.685270
3.482000E-5,-0.701639
3.483000E-5,-0.717749
3.484000E-5,-0.733492
3.485000E-5,-0.748835
3.486000E-5,-0.763747
3.487000E-5,-0.778237
3.488000E-5,-0.792298
3.489000E-5,-0.805936
3.490000E-5,-0.819213
3.491000E-5,-0.832090
3.492000E-5,-0.844550
3.493000E-5,-0.856574
3.494000E-5,-0.868174
3.495000E-5,-0.879354
3.496000E-5,-0.890191
3.497000E-5,-0.900739
3.498000E-5,-0.910906
3.499000E-5,-0.920676
3.500000E-5,-0.930091
3.501000E-5,-0.939158
3.502000E-5,-0.947831
3.503000E-5,-0.956027
3.504000E-5,-0.963701
3.505000E-5,-0.970917
3.506000E-5,-0.977667
3.507000E-5,-0.983872
3.508000E-5,-0.989727
3.509000E-5,-0.995344
3.510000E-5,-1.000595
3.511000E-5,-1.005442
3.512000E-5,-1.009820
3.513000E-5,-1.013671
3.514000E-5,-1.017120
3.515000E-5,-1.020235
3.516000E-5,-1.022937
3.517000E-5,-1.025196
3.518000E-5,-1.027144
3.519000E-5,-1.028841
3.520000E-5,-1.030229
3.521000E-5,-1.031310
3.522000E-5,-1.031923
3.523000E-5,-1.032076
3.524000E-5,-1.031922
3.525000E-5,-1.031438
3.526000E-5,-1.030614
3.527000E-5,-1.029493
3.528000E-5,-1.028180
3.529000E-5,-1.026571
3.530000E-5,-1.024536
3.531000E-5,-1.022316
3.532000E-5,-1.019856
3.533000E-5,-1.017048
3.534000E-5,-1.013880
3.535000E-5,-1.010435
3.536000E-5,-1.006950
3.537000E-5,-1.003438
3.538000E-5,-0.999893
3.539000E-5,-0.996198
3.540000E-5,-0.992231
3.541000E-5,-0.988043
3.542000E-5,-0.983648
3.543000E-5,-0.979011
3.544000E-5,-0.973971
3.545000E-5,-0.968577
3.546000E-5,-0.963159
3.547000E-5,-0.957854
3.548000E-5,-0.952516
3.549000E-5,-0.946991
3.550000E-5,-0.941301
3.551000E-5,-0.935498
3.552000E-5,-0.929615
3.553000E-5,-0.923750
3.554000E-5,-0.917697
3.555000E-5,-0.911181
3.556000E-5,-0.904422
3.557000E-5,-0.897645
3.558000E-5,-0.891097
3.559000E-5,-0.884816
3.560000E-5,-0.878302
3.561000E-5,-0.871332
3.562000E-5,-0.864260
3.563000E-5,-0.857131
3.564000E-5,-0.849893
3.565000E-5,-0.842690
3.566000E-5,-0.835410
3.567000E-5,-0.827869
3.568000E-5,-0.820058
3.569000E-5,-0.812000
3.570000E-5,-0.803731
3.571000E-5,-0.795450
3.572000E-5,-0.787298
3.573000E-5,-0.779254
3.574000E-5,-0.771022
3.575000E-5,-0.762341
3.576000E-5,-0.753427
3.577000E-5,-0.744568
3.578000E-5,-0.735674
3.579000E-5,-0.726518
3.580000E-5,-0.717168
3.581000E-5,-0.707679
3.582000E-5,-0.698045
3.583000E-5,-0.688284
3.584000E-5,-0.678288
3.585000E-5,-0.667932
3.586000E-5,-0.657266
3.587000E-5,-0.646476
3.588000E-5,-0.635576
3.589000E-5,-0.624493
3.590000E-5,-0.613252
3.591000E-5,-0.601726
3.592000E-5,-0.590051
3.593000E-5,-0.578285
3.594000E-5,-0.566337
3.595000E-5,-0.554260
3.596000E-5,-0.542000
3.597000E-5,-0.529538
3.598000E-5,-0.516803
3.599000E-5,-0.503866
3.600000E-5,-0.490727
3.601000E-5,-0.477285
3.602000E-5,-0.463586
3.603000E-5,-0.449761
3.604000E-5,-0.435737
3.605000E-5,-0.421364
3.606000E-5,-0.406712
3.607000E-5,-0.391859
3.608000E-5,-0.376812
3.609000E-5,-0.361566
3.610000E-5,-0.346025
3.611000E-5,-0.330116
3.612000E-5,-0.313920
3.613000E-5,-0.297523
3.614000E-5,-0.280887
3.615000E-5,-0.264067
3.616000E-5,-0.247089
3.617000E-5,-0.229921
3.618000E-5,-0.212597
3.619000E-5,-0.195136
3.620000E-5,-0.177661
3.621000E-5,-0.160215
3.622000E-5,-0.142682
3.623000E-5,-0.124962
3.624000E-5,-0.106920
3.625000E-5,-0.088645
3.626000E-5,-0.070345
3.627000E-5,-0.051943
3.628000E-5,-0.033292
3.629000E-5,-0.014474
3.630000E-5,0.004255
3.631000E-5,0.022869
3.632000E-5,0.041523
3.633000E-5,0.060349
3.634000E-5,0.079341
3.635000E-5,0.098413
3.636000E-5,0.117569
3.637000E-5,0.136711
3.638000E-5,0.155725
3.639000E-5,0.174735
3.640000E-5,0.193841
3.641000E-5,0.212867
3.642000E-5,0.231844
3.643000E-5,0.250908
3.644000E-5,0.269861
3.645000E-5,0.288608
3.646000E-5,0.307349
3.647000E-5,0.326111
3.648000E-5,0.344793
3.649000E-5,0.363348
3.650000E-5,0.381631
3.651000E-5,0.399651
3.652000E-5,0.417577
3.653000E-5,0.435426
3.654000E-5,0.453196
3.655000E-5,0.470811
3.656000E-5,0.488286
3.657000E-5,0.505691
3.658000E-5,0.522839
3.659000E-5,0.539597
3.660000E-5,0.555991
3.661000E-5,0.571907
3.662000E-5,0.587404
3.663000E-5,0.602616
3.664000E-5,0.617565
3.665000E-5,0.632274
3.666000E-5,0.646642
3.667000E-5,0.660547
3.668000E-5,0.674097
3.669000E-5,0.687464
3.670000E-5,0.700512
3.671000E-5,0.713148
3.672000E-5,0.725280
3.673000E-5,0.736838
3.674000E-5,0.747961
3.675000E-5,0.758668
3.676000E-5,0.768895
3.677000E-5,0.778715
3.678000E-5,0.788134
3.679000E-5,0.797053
3.680000E-5,0.805377
3.681000E-5,0.813172
3.682000E-5,0.820510
3.683000E-5,0.827303
3.684000E-5,0.833455
3.685000E-5,0.839000
3.686000E-5,0.844052
3.687000E-5,0.848680
3.688000E-5,0.852763
3.689000E-5,0.856157
3.690000E-5,0.859034
3.691000E-5,0.861450
3.692000E-5,0.863226
3.693000E-5,0.864419
3.694000E-5,0.865184
3.695000E-5,0.865529
3.696000E-5,0.865403
3.697000E-5,0.864698
3.698000E-5,0.863477
3.699000E-5,0.861806
3.700000E-5,0.859588
3.701000E-5,0.856861
3.702000E-5,0.853692
3.703000E-5,0.850081
3.704000E-5,0.845971
3.705000E-5,0.841336
3.706000E-5,0.836361
3.707000E-5,0.831123
3.708000E-5,0.825440
3.709000E-5,0.819237
3.710000E-5,0.812586
3.711000E-5,0.805556
3.712000E-5,0.798287
3.713000E-5,0.790735
3.714000E-5,0.782886
3.715000E-5,0.774727
3.716000E-5,0.766212
3.717000E-5,0.757452
3.718000E-5,0.748356
3.719000E-5,0.738943
3.720000E-5,0.729340
3.721000E-5,0.719540
3.722000E-5,0.709586
3.723000E-5,0.699514
3.724000E-5,0.689302
3.725000E-5,0.678848
3.726000E-5,0.668265
3.727000E-5,0.657700
3.728000E-5,0.647100
3.729000E-5,0.636474
3.730000E-5,0.625810
3.731000E-5,0.615114
3.732000E-5,0.604438
3.733000E-5,0.593806
3.734000E-5,0.583274
3.735000E-5,0.572891
3.736000E-5,0.562626
3.737000E-5,0.552417
3.738000E-5,0.542251
3.739000E-5,0.532113
3.740000E-5,0.522054
3.741000E-5,0.512199
3.742000E-5,0.502558
3.743000E-5,0.493122
3.744000E-5,0.483913
3.745000E-5,0.474908
3.746000E-5,0.466107
3.747000E-5,0.457587
3.748000E-5,0.449315
3.749000E-5,0.441109
3.750000E-5,0.433023
3.751000E-5,0.425278
3.752000E-5,0.417889
3.753000E-5,0.410838
3.754000E-5,0.404090
3.755000E-5,0.397528
3.756000E-5,0.391221
3.757000E-5,0.385226
3.758000E-5,0.379562
3.759000E-5,0.374204
3.760000E-5,0.369113
3.761000E-5,0.364317
3.762000E-5,0.359782
3.763000E-5,0.355629
3.764000E-5,0.351926
3.765000E-5,0.348558
3.766000E-5,0.345494
3.767000E-5,0.342828
3.768000E-5,0.340615
3.769000E-5,0.338726
3.770000E-5,0.336973
3.771000E-5,0.335278
3.772000E-5,0.333688
3.773000E-5,0.332311
3.774000E-5,0.331269
3.775000E-5,0.330580
3.776000E-5,0.330196
3.777000E-5,0.330191
3.778000E-5,0.330553
3.779000E-5,0.331130
3.780000E-5,0.331801
3.781000E-5,0.332625
3.782000E-5,0.333766
3.783000E-5,0.335332
3.784000E-5,0.337212
3.785000E-5,0.339328
3.786000E-5,0.341538
3.787000E-5,0.343601
3.788000E-5,0.345554
3.789000E-5,0.347463
3.790000E-5,0.349369
3.791000E-5,0.351313
3.792000E-5,0.353296
3.793000E-5,0.355344
3.794000E-5,0.357499
3.795000E-5,0.359734
3.796000E-5,0.361900
3.797000E-5,0.363959
3.798000E-5,0.366042
3.799000E-5,0.368187
3.800000E-5,0.370437
3.801000E-5,0.372794
3.802000E-5,0.375121
3.803000E-5,0.377322
3.804000E-5,0.379299
3.805000E-5,0.381051
3.806000E-5,0.382603
3.807000E-5,0.383848
3.808000E-5,0.384837
3.809000E-5,0.385720
3.810000E-5,0.386466
3.811000E-5,0.387020
3.812000E-5,0.387367
3.813000E-5,0.387415
3.814000E-5,0.387147
3.815000E-5,0.386609
3.816000E-5,0.385791
3.817000E-5,0.384627
3.818000E-5,0.383089
3.819000E-5,0.381234
3.820000E-5,0.379036
3.821000E-5,0.376403
3.822000E-5,0.373362
3.823000E-5,0.369970
3.824000E-5,0.366201
3.825000E-5,0.362011
3.826000E-5,0.357450
3.827000E-5,0.352526
3.828000E-5,0.347188
3.829000E-5,0.341416
3.830000E-5,0.335186
3.831000E-5,0.328575
3.832000E-5,0.321606
3.833000E-5,0.314254
3.834000E-5,0.306508
3.835000E-5,0.298389
3.836000E-5,0.289943
3.837000E-5,0.281076
3.838000E-5,0.271744
3.839000E-5,0.261972
3.840000E-5,0.251707
3.841000E-5,0.240967
3.842000E-5,0.229802
3.843000E-5,0.218217
3.844000E-5,0.206215
3.845000E-5,0.193895
3.846000E-5,0.181274
3.847000E-5,0.168276
3.848000E-5,0.154827
3.849000E-5,0.140937
3.850000E-5,0.126708
3.851000E-5,0.112145
3.852000E-5,0.097148
3.853000E-5,0.081664
3.854000E-5,0.065799
3.855000E-5,0.049627
3.856000E-5,0.033157
3.857000E-5,0.016395
3.858000E-5,-0.000649
3.859000E-5,-0.018132
3.860000E-5,-0.036016
3.861000E-5,-0.054175
3.862000E-5,-0.072634
3.863000E-5,-0.091317
3.864000E-5,-0.110251
3.865000E-5,-0.129456
3.866000E-5,-0.148883
3.867000E-5,-0.168602
3.868000E-5,-0.188643
3.869000E-5,-0.209005
3.870000E-5,-0.229659
3.871000E-5,-0.250370
3.872000E-5,-0.271054
3.873000E-5,-0.291858
3.874000E-5,-0.312809
3.875000E-5,-0.333835
3.876000E-5,-0.355013
3.877000E-5,-0.376319
3.878000E-5,-0.397674
3.879000E-5,-0.419120
3.880000E-5,-0.440571
3.881000E-5,-0.461936
3.882000E-5,-0.483222
3.883000E-5,-0.504462
3.884000E-5,-0.525632
3.885000E-5,-0.546717
3.886000E-5,-0.567651
3.887000E-5,-0.588414
3.888000E-5,-0.609059
3.889000E-5,-0.629623
3.890000E-5,-0.650047
3.891000E-5,-0.670214
3.892000E-5,-0.690215
3.893000E-5,-0.709962
3.894000E-5,-0.729247
3.895000E-5,-0.748322
3.896000E-5,-0.767186
3.897000E-5,-0.785547
3.898000E-5,-0.803488
3.899000E-5,-0.821089
3.900000E-5,-0.838229
3.901000E-5,-0.854962
3.902000E-5,-0.871312
3.903000E-5,-0.887113
3.904000E-5,-0.902424
3.905000E-5,-0.917310
3.906000E-5,-0.931701
3.907000E-5,-0.945563
3.908000E-5,-0.958745
3.909000E-5,-0.971294
3.910000E-5,-0.983408
3.911000E-5,-0.995018
3.912000E-5,-1.006013
3.913000E-5,-1.016389
3.914000E-5,-1.026119
3.915000E-5,-1.035147
3.916000E-5,-1.043542
3.917000E-5,-1.051250
3.918000E-5,-1.058263
3.919000E-5,-1.064725
3.920000E-5,-1.070497
3.921000E-5,-1.075358
3.922000E-5,-1.079508
3.923000E-5,-1.083057
3.924000E-5,-1.086038
3.925000E-5,-1.088438
3.926000E-5,-1.090097
3.927000E-5,-1.091054
3.928000E-5,-1.091333
3.929000E-5,-1.091009
3.930000E-5,-1.090247
3.931000E-5,-1.088844
3.932000E-5,-1.086525
3.933000E-5,-1.083379
3.934000E-5,-1.079533
3.935000E-5,-1.074956
3.936000E-5,-1.069631
3.937000E-5,-1.063737
3.938000E-5,-1.057361
3.939000E-5,-1.050353
3.940000E-5,-1.042646
3.941000E-5,-1.034308
3.942000E-5,-1.025340
3.943000E-5,-1.015855
3.944000E-5,-1.005946
3.945000E-5,-0.995616
3.946000E-5,-0.984859
3.947000E-5,-0.973509
3.948000E-5,-0.961541
3.949000E-5,-0.949146
3.950000E-5,-0.936438
3.951000E-5,-0.923291
3.952000E-5,-0.909549
3.953000E-5,-0.895356
3.954000E-5,-0.880820
3.955000E-5,-0.865871
3.956000E-5,-0.850519
3.957000E-5,-0.834859
3.958000E-5,-0.818827
3.959000E-5,-0.802432
3.960000E-5,-0.785829
3.961000E-5,-0.769029
3.962000E-5,-0.752045
3.963000E-5,-0.734929
3.964000E-5,-0.717636
3.965000E-5,-0.700171
3.966000E-5,-0.682623
3.967000E-5,-0.665037
3.968000E-5,-0.647429
3.969000E-5,-0.629754
3.970000E-5,-0.612028
3.971000E-5,-0.594266
3.972000E-5,-0.576390
3.973000E-5,-0.558375
3.974000E-5,-0.540326
3.975000E-5,-0.522242
3.976000E-5,-0.504104
3.977000E-5,-0.485949
3.978000E-5,-0.467819
3.979000E-5,-0.449728
3.980000E-5,-0.431752
3.981000E-5,-0.413893
3.982000E-5,-0.396103
3.983000E-5,-0.378466
3.984000E-5,-0.361001
3.985000E-5,-0.343708
3.986000E-5,-0.326566
3.987000E-5,-0.309552
3.988000E-5,-0.292758
3.989000E-5,-0.276205
3.990000E-5,-0.259771
3.991000E-5,-0.243528
3.992000E-5,-0.227488
3.993000E-5,-0.211639
3.994000E-5,-0.196013
3.995000E-5,-0.180561
3.996000E-5,-0.165316
3.997000E-5,-0.150293
3.998000E-5,-0.135450
3.999000E-5,-0.120761
4.000000E-5,-0.106279
4.001000E-5,-0.092011
4.002000E-5,-0.077921
4.003000E-5,-0.064104
4.004000E-5,-0.050556
4.005000E-5,-0.037217
4.006000E-5,-0.024128
4.007000E-5,-0.011223
4.008000E-5,0.001515
4.009000E-5,0.014072
4.010000E-5,0.026456
4.011000E-5,0.038597
4.012000E-5,0.050394
4.013000E-5,0.061983
4.014000E-5,0.073403
4.015000E-5,0.084601
4.016000E-5,0.095560
4.017000E-5,0.106308
4.018000E-5,0.116893
4.019000E-5,0.127290
4.020000E-5,0.137462
4.021000E-5,0.147501
4.022000E-5,0.157433
4.023000E-5,0.167180
4.024000E-5,0.176822
4.025000E-5,0.186268
4.026000E-5,0.195503
4.027000E-5,0.204594
4.028000E-5,0.213487
4.029000E-5,0.222127
4.030000E-5,0.230631
4.031000E-5,0.239126
4.032000E-5,0.247557
4.033000E-5,0.255948
4.034000E-5,0.264310
4.035000E-5,0.272510
4.036000E-5,0.280526
4.037000E-5,0.288530
4.038000E-5,0.296569
4.039000E-5,0.304415
4.040000E-5,0.312033
4.041000E-5,0.319535
4.042000E-5,0.327092
4.043000E-5,0.334626
4.044000E-5,0.342089
4.045000E-5,0.349467
4.046000E-5,0.356730
4.047000E-5,0.363934
4.048000E-5,0.370949
4.049000E-5,0.377857
4.050000E-5,0.384852
4.051000E-5,0.392012
4.052000E-5,0.399140
4.053000E-5,0.406250
4.054000E-5,0.413423
4.055000E-5,0.420531
4.056000E-5,0.427695
4.057000E-5,0.435001
4.058000E-5,0.442332
4.059000E-5,0.449663
4.060000E-5,0.457046
4.061000E-5,0.464303
4.062000E-5,0.471435
4.063000E-5,0.478700
4.064000E-5,0.486116
4.065000E-5,0.493525
4.066000E-5,0.500865
4.067000E-5,0.508199
4.068000E-5,0.515551
4.069000E-5,0.522902
4.070000E-5,0.530234
4.071000E-5,0.537492
4.072000E-5,0.544755
4.073000E-5,0.551967
4.074000E-5,0.559006
4.075000E-5,0.566103
4.076000E-5,0.573286
4.077000E-5,0.580385
4.078000E-5,0.587335
4.079000E-5,0.594137
4.080000E-5,0.600837
4.081000E-5,0.607535
4.082000E-5,0.614107
4.083000E-5,0.620475
4.084000E-5,0.626737
4.085000E-5,0.632902
4.086000E-5,0.639021
4.087000E-5,0.645050
4.088000E-5,0.651033
4.089000E-5,0.657048
4.090000E-5,0.663021
4.091000E-5,0.668680
4.092000E-5,0.674028
4.093000E-5,0.679139
4.094000E-5,0.683886
4.095000E-5,0.688317
4.096000E-5,0.692453
4.097000E-5,0.696339
4.098000E-5,0.699887
4.099000E-5,0.703167
4.100000E-5,0.706342
4.101000E-5,0.709211
4.102000E-5,0.711710
4.103000E-5,0.714068
4.104000E-5,0.716317
4.105000E-5,0.718214
4.106000E-5,0.719813
4.107000E-5,0.721128
4.108000E-5,0.722012
4.109000E-5,0.722479
4.110000E-5,0.722694
4.111000E-5,0.722679
4.112000E-5,0.722244
4.113000E-5,0.721412
4.114000E-5,0.720284
4.115000E-5,0.718760
4.116000E-5,0.716763
4.117000E-5,0.714428
4.118000E-5,0.711835
4.119000E-5,0.709013
4.120000E-5,0.705889
4.121000E-5,0.702420
4.122000E-5,0.698598
4.123000E-5,0.694320
4.124000E-5,0.689573
4.125000E-5,0.684369
4.126000E-5,0.678688
4.127000E-5,0.672644
4.128000E-5,0.666295
4.129000E-5,0.659605
4.130000E-5,0.652546
4.131000E-5,0.645116
4.132000E-5,0.637281
4.133000E-5,0.629127
4.134000E-5,0.620713
4.135000E-5,0.612048
4.136000E-5,0.603155
4.137000E-5,0.594020
4.138000E-5,0.584602
4.139000E-5,0.574861
4.140000E-5,0.564790
4.141000E-5,0.554338
4.142000E-5,0.543527
4.143000E-5,0.532381
4.144000E-5,0.520922
4.145000E-5,0.509144
4.146000E-5,0.497098
4.147000E-5,0.484835
4.148000E-5,0.472310
4.149000E-5,0.459509
4.150000E-5,0.446519
4.151000E-5,0.433361
4.152000E-5,0.420083
4.153000E-5,0.406623
4.154000E-5,0.392953
4.155000E-5,0.379187
4.156000E-5,0.365306
4.157000E-5,0.351281
4.158000E-5,0.337173
4.159000E-5,0.322979
4.160000E-5,0.308688
4.161000E-5,0.294312
4.162000E-5,0.279898
4.163000E-5,0.265476
4.164000E-5,0.251034
4.165000E-5,0.236609
4.166000E-5,0.222123
4.167000E-5,0.207565
4.168000E-5,0.192952
4.169000E-5,0.178239
4.170000E-5,0.163430
4.171000E-5,0.148531
4.172000E-5,0.133653
4.173000E-5,0.118805
4.174000E-5,0.103965
4.175000E-5,0.089256
4.176000E-5,0.074640
4.177000E-5,0.059992
4.178000E-5,0.045458
4.179000E-5,0.031049
4.180000E-5,0.016619
4.181000E-5,0.002311
4.182000E-5,-0.011884
4.183000E-5,-0.025899
4.184000E-5,-0.039627
4.185000E-5,-0.053192
4.186000E-5,-0.066665
4.187000E-5,-0.080006
4.188000E-5,-0.093116
4.189000E-5,-0.106059
4.190000E-5,-0.118866
4.191000E-5,-0.131549
4.192000E-5,-0.144159
4.193000E-5,-0.156635
4.194000E-5,-0.168963
4.195000E-5,-0.181165
4.196000E-5,-0.193105
4.197000E-5,-0.204618
4.198000E-5,-0.215738
4.199000E-5,-0.226654
4.200000E-5,-0.237514
4.201000E-5,-0.248267
4.202000E-5,-0.258779
4.203000E-5,-0.268909
4.204000E-5,-0.278703
4.205000E-5,-0.288288
4.206000E-5,-0.297663
4.207000E-5,-0.306872
4.208000E-5,-0.315900
4.209000E-5,-0.324546
4.210000E-5,-0.332783
4.211000E-5,-0.340870
4.212000E-5,-0.348915
4.213000E-5,-0.356812
4.214000E-5,-0.364378
4.215000E-5,-0.371663
4.216000E-5,-0.378752
4.217000E-5,-0.385605
4.218000E-5,-0.392220
4.219000E-5,-0.398453
4.220000E-5,-0.404216
4.221000E-5,-0.409674
4.222000E-5,-0.415059
4.223000E-5,-0.420300
4.224000E-5,-0.425245
4.225000E-5,-0.429826
4.226000E-5,-0.434036
4.227000E-5,-0.438023
4.228000E-5,-0.441897
4.229000E-5,-0.445584
4.230000E-5,-0.448937
4.231000E-5,-0.451998
4.232000E-5,-0.454873
4.233000E-5,-0.457529
4.234000E-5,-0.459891
4.235000E-5,-0.462137
4.236000E-5,-0.464462
4.237000E-5,-0.466808
4.238000E-5,-0.469058
4.239000E-5,-0.471132
4.240000E-5,-0.472948
4.241000E-5,-0.474535
4.242000E-5,-0.476034
4.243000E-5,-0.477503
4.244000E-5,-0.478813
4.245000E-5,-0.479895
4.246000E-5,-0.480950
4.247000E-5,-0.482005
4.248000E-5,-0.482909
4.249000E-5,-0.483652
4.250000E-5,-0.484153
4.251000E-5,-0.484455
4.252000E-5,-0.484788
4.253000E-5,-0.485148
4.254000E-5,-0.485485
4.255000E-5,-0.485857
4.256000E-5,-0.486217
4.257000E-5,-0.486482
4.258000E-5,-0.486603
4.259000E-5,-0.486508
4.260000E-5,-0.486361
4.261000E-5,-0.486329
4.262000E-5,-0.486301
4.263000E-5,-0.486177
4.264000E-5,-0.485931
4.265000E-5,-0.485690
4.266000E-5,-0.485576
4.267000E-5,-0.485434
4.268000E-5,-0.485251
4.269000E-5,-0.485037
4.270000E-5,-0.484627
4.271000E-5,-0.484167
4.272000E-5,-0.483929
4.273000E-5,-0.483771
4.274000E-5,-0.483624
4.275000E-5,-0.483433
4.276000E-5,-0.483084
4.277000E-5,-0.482777
4.278000E-5,-0.482590
4.279000E-5,-0.482396
4.280000E-5,-0.482082
4.281000E-5,-0.481675
4.282000E-5,-0.481307
4.283000E-5,-0.481034
4.284000E-5,-0.480768
4.285000E-5,-0.480394
4.286000E-5,-0.480009
4.287000E-5,-0.479716
4.288000E-5,-0.479432
4.289000E-5,-0.479093
4.290000E-5,-0.478701
4.291000E-5,-0.478374
4.292000E-5,-0.477996
4.293000E-5,-0.477326
4.294000E-5,-0.476533
4.295000E-5,-0.475729
4.296000E-5,-0.474968
4.297000E-5,-0.474140
4.298000E-5,-0.473051
4.299000E-5,-0.471782
4.300000E-5,-0.470314
4.301000E-5,-0.468635
4.302000E-5,-0.466813
4.303000E-5,-0.464720
4.304000E-5,-0.462319
4.305000E-5,-0.459919
4.306000E-5,-0.457536
4.307000E-5,-0.455025
4.308000E-5,-0.452472
4.309000E-5,-0.449941
4.310000E-5,-0.447354
4.311000E-5,-0.444627
4.312000E-5,-0.441740
4.313000E-5,-0.438660
4.314000E-5,-0.435399
4.315000E-5,-0.431963
4.316000E-5,-0.428305
4.317000E-5,-0.424389
4.318000E-5,-0.420254
4.319000E-5,-0.415962
4.320000E-5,-0.411527
4.321000E-5,-0.406939
4.322000E-5,-0.402176
4.323000E-5,-0.397194
4.324000E-5,-0.391995
4.325000E-5,-0.386530
4.326000E-5,-0.380790
4.327000E-5,-0.374872
4.328000E-5,-0.368741
4.329000E-5,-0.362330
4.330000E-5,-0.355709
4.331000E-5,-0.348853
4.332000E-5,-0.341775
4.333000E-5,-0.334507
4.334000E-5,-0.327003
4.335000E-5,-0.319250
4.336000E-5,-0.311231
4.337000E-5,-0.303041
4.338000E-5,-0.294670
4.339000E-5,-0.286023
4.340000E-5,-0.277154
4.341000E-5,-0.268111
4.342000E-5,-0.258781
4.343000E-5,-0.249146
4.344000E-5,-0.239260
4.345000E-5,-0.229119
4.346000E-5,-0.218791
4.347000E-5,-0.208321
4.348000E-5,-0.197630
4.349000E-5,-0.186658
4.350000E-5,-0.175452
4.351000E-5,-0.163983
4.352000E-5,-0.152270
4.353000E-5,-0.140348
4.354000E-5,-0.128151
4.355000E-5,-0.115821
4.356000E-5,-0.103453
4.357000E-5,-0.090977
4.358000E-5,-0.078257
4.359000E-5,-0.065281
4.360000E-5,-0.052134
4.361000E-5,-0.038730
4.362000E-5,-0.025005
4.363000E-5,-0.011115
4.364000E-5,0.002721
4.365000E-5,0.016598
4.366000E-5,0.030527
4.367000E-5,0.044321
4.368000E-5,0.057993
4.369000E-5,0.071661
4.370000E-5,0.085418
4.371000E-5,0.099347
4.372000E-5,0.113378
4.373000E-5,0.127362
4.374000E-5,0.141338
4.375000E-5,0.155477
4.376000E-5,0.169707
4.377000E-5,0.183790
4.378000E-5,0.197787
4.379000E-5,0.211859
4.380000E-5,0.226009
4.381000E-5,0.240148
4.382000E-5,0.254220
4.383000E-5,0.268240
4.384000E-5,0.282010
4.385000E-5,0.295397
4.386000E-5,0.308666
4.387000E-5,0.321856
4.388000E-5,0.334859
4.389000E-5,0.347661
4.390000E-5,0.360285
4.391000E-5,0.372939
4.392000E-5,0.385439
4.393000E-5,0.397527
4.394000E-5,0.409288
4.395000E-5,0.420777
4.396000E-5,0.432081
4.397000E-5,0.443203
4.398000E-5,0.454018
4.399000E-5,0.464479
4.400000E-5,0.474617
4.401000E-5,0.484358
4.402000E-5,0.493780
4.403000E-5,0.502986
4.404000E-5,0.511900
4.405000E-5,0.520425
4.406000E-5,0.528606
4.407000E-5,0.536478
4.408000E-5,0.543984
4.409000E-5,0.551032
4.410000E-5,0.557636
4.411000E-5,0.563944
4.412000E-5,0.569930
4.413000E-5,0.575631
4.414000E-5,0.581035
4.415000E-5,0.586045
4.416000E-5,0.590718
4.417000E-5,0.594894
4.418000E-5,0.598536
4.419000E-5,0.601778
4.420000E-5,0.604739
4.421000E-5,0.607530
4.422000E-5,0.609997
4.423000E-5,0.612098
4.424000E-5,0.613985
4.425000E-5,0.615579
4.426000E-5,0.616688
4.427000E-5,0.617220
4.428000E-5,0.617233
4.429000E-5,0.616938
4.430000E-5,0.616404
4.431000E-5,0.615548
4.432000E-5,0.614355
4.433000E-5,0.612824
4.434000E-5,0.610928
4.435000E-5,0.608633
4.436000E-5,0.605993
4.437000E-5,0.603012
4.438000E-5,0.599548
4.439000E-5,0.595548
4.440000E-5,0.591243
4.441000E-5,0.586780
4.442000E-5,0.582037
4.443000E-5,0.577052
4.444000E-5,0.571850
4.445000E-5,0.566368
4.446000E-5,0.560624
4.447000E-5,0.554710
4.448000E-5,0.548646
4.449000E-5,0.542385
4.450000E-5,0.535993
4.451000E-5,0.529392
4.452000E-5,0.522514
4.453000E-5,0.515423
4.454000E-5,0.508074
4.455000E-5,0.500481
4.456000E-5,0.492742
4.457000E-5,0.484862
4.458000E-5,0.476843
4.459000E-5,0.468823
4.460000E-5,0.460738
4.461000E-5,0.452487
4.462000E-5,0.444169
4.463000E-5,0.435863
4.464000E-5,0.427502
4.465000E-5,0.419087
4.466000E-5,0.410599
4.467000E-5,0.402145
4.468000E-5,0.393715
4.469000E-5,0.385173
4.470000E-5,0.376550
4.471000E-5,0.367812
4.472000E-5,0.359049
4.473000E-5,0.350331
4.474000E-5,0.341707
4.475000E-5,0.333215
4.476000E-5,0.324849
4.477000E-5,0.316532
4.478000E-5,0.308310
4.479000E-5,0.300207
4.480000E-5,0.292160
4.481000E-5,0.284115
4.482000E-5,0.276112
4.483000E-5,0.268199
4.484000E-5,0.260349
4.485000E-5,0.252656
4.486000E-5,0.245249
4.487000E-5,0.238057
4.488000E-5,0.230927
4.489000E-5,0.223902
4.490000E-5,0.217061
4.491000E-5,0.210415
4.492000E-5,0.203895
4.493000E-5,0.197458
4.494000E-5,0.191182
4.495000E-5,0.185098
4.496000E-5,0.179195
4.497000E-5,0.173539
4.498000E-5,0.168074
4.499000E-5,0.162814
4.500000E-5,0.157796
4.501000E-5,0.152926
4.502000E-5,0.148192
4.503000E-5,0.143618
4.504000E-5,0.139225
4.505000E-5,0.135036
4.506000E-5,0.131007
4.507000E-5,0.127060
4.508000E-5,0.123247
4.509000E-5,0.119562
4.510000E-5,0.115929
4.511000E-5,0.112371
4.512000E-5,0.108864
4.513000E-5,0.105432
4.514000E-5,0.102056
4.515000E-5,0.098719
4.516000E-5,0.095501
4.517000E-5,0.092334
4.518000E-5,0.089254
4.519000E-5,0.086300
4.520000E-5,0.083322
4.521000E-5,0.080381
4.522000E-5,0.077525
4.523000E-5,0.074711
4.524000E-5,0.071979
4.525000E-5,0.069250
4.526000E-5,0.066479
4.527000E-5,0.063758
4.528000E-5,0.061074
4.529000E-5,0.058395
4.530000E-5,0.055739
4.531000E-5,0.053109
4.532000E-5,0.050501
4.533000E-5,0.047854
4.534000E-5,0.045224
4.535000E-5,0.042628
4.536000E-5,0.039963
4.537000E-5,0.037263
4.538000E-5,0.034540
4.539000E-5,0.031787
4.540000E-5,0.029050
4.541000E-5,0.026270
4.542000E-5,0.023402
4.543000E-5,0.020554
4.544000E-5,0.017694
4.545000E-5,0.014777
4.546000E-5,0.011788
4.547000E-5,0.008763
4.548000E-5,0.005708
4.549000E-5,0.002514
4.550000E-5,-0.000750
4.551000E-5,-0.004121
4.552000E-5,-0.007640
4.553000E-5,-0.011251
4.554000E-5,-0.014954
4.555000E-5,-0.018782
4.556000E-5,-0.022796
4.557000E-5,-0.026969
4.558000E-5,-0.031231
4.559000E-5,-0.035664
4.560000E-5,-0.040285
4.561000E-5,-0.045044
4.562000E-5,-0.049985
4.563000E-5,-0.055093
4.564000E-5,-0.060384
4.565000E-5,-0.065863
4.566000E-5,-0.071408
4.567000E-5,-0.076944
4.568000E-5,-0.082463
4.569000E-5,-0.088071
4.570000E-5,-0.093926
4.571000E-5,-0.100005
4.572000E-5,-0.106217
4.573000E-5,-0.112513
4.574000E-5,-0.118858
4.575000E-5,-0.125176
4.576000E-5,-0.131616
4.577000E-5,-0.138298
4.578000E-5,-0.145075
4.579000E-5,-0.151940
4.580000E-5,-0.158865
4.581000E-5,-0.165794
4.582000E-5,-0.172858
4.583000E-5,-0.180100
4.584000E-5,-0.187422
4.585000E-5,-0.194747
4.586000E-5,-0.202105
4.587000E-5,-0.209562
4.588000E-5,-0.217089
4.589000E-5,-0.224643
4.590000E-5,-0.232090
4.591000E-5,-0.239409
4.592000E-5,-0.246692
4.593000E-5,-0.254036
4.594000E-5,-0.261357
4.595000E-5,-0.268523
4.596000E-5,-0.275535
4.597000E-5,-0.282396
4.598000E-5,-0.289115
4.599000E-5,-0.295700
4.600000E-5,-0.302211
4.601000E-5,-0.308648
4.602000E-5,-0.314989
4.603000E-5,-0.321235
4.604000E-5,-0.327358
4.605000E-5,-0.333296
4.606000E-5,-0.339084
4.607000E-5,-0.344866
4.608000E-5,-0.350627
4.609000E-5,-0.356296
4.610000E-5,-0.361816
4.611000E-5,-0.367034
4.612000E-5,-0.371983
4.613000E-5,-0.376743
4.614000E-5,-0.381306
4.615000E-5,-0.385666
4.616000E-5,-0.389766
4.617000E-5,-0.393610
4.618000E-5,-0.397158
4.619000E-5,-0.400416
4.620000E-5,-0.403453
4.621000E-5,-0.406295
4.622000E-5,-0.408894
4.623000E-5,-0.411227
4.624000E-5,-0.413272
4.625000E-5,-0.415000
4.626000E-5,-0.416491
4.627000E-5,-0.417696
4.628000E-5,-0.418608
4.629000E-5,-0.419208
4.630000E-5,-0.419394
4.631000E-5,-0.419293
4.632000E-5,-0.418953
4.633000E-5,-0.418319
4.634000E-5,-0.417452
4.635000E-5,-0.416348
4.636000E-5,-0.415004
4.637000E-5,-0.413323
4.638000E-5,-0.411342
4.639000E-5,-0.409225
4.640000E-5,-0.406837
4.641000E-5,-0.404107
4.642000E-5,-0.401051
4.643000E-5,-0.397651
4.644000E-5,-0.393967
4.645000E-5,-0.390016
4.646000E-5,-0.385770
4.647000E-5,-0.381269
4.648000E-5,-0.376508
4.649000E-5,-0.371440
4.650000E-5,-0.366112
4.651000E-5,-0.360577
4.652000E-5,-0.354810
4.653000E-5,-0.348806
4.654000E-5,-0.342605
4.655000E-5,-0.336188
4.656000E-5,-0.329538
4.657000E-5,-0.322680
4.658000E-5,-0.315647
4.659000E-5,-0.308463
4.660000E-5,-0.301131
4.661000E-5,-0.293690
4.662000E-5,-0.286126
4.663000E-5,-0.278391
4.664000E-5,-0.270511
4.665000E-5,-0.262517
4.666000E-5,-0.254420
4.667000E-5,-0.246256
4.668000E-5,-0.238056
4.669000E-5,-0.229783
4.670000E-5,-0.221403
4.671000E-5,-0.213026
4.672000E-5,-0.204664
4.673000E-5,-0.196259
4.674000E-5,-0.187839
4.675000E-5,-0.179396
4.676000E-5,-0.170967
4.677000E-5,-0.162642
4.678000E-5,-0.154344
4.679000E-5,-0.146072
4.680000E-5,-0.137893
4.681000E-5,-0.129817
4.682000E-5,-0.121832
4.683000E-5,-0.113883
4.684000E-5,-0.106044
4.685000E-5,-0.098345
4.686000E-5,-0.090814
4.687000E-5,-0.083399
4.688000E-5,-0.076109
4.689000E-5,-0.068991
4.690000E-5,-0.062009
4.691000E-5,-0.055181
4.692000E-5,-0.048543
4.693000E-5,-0.042103
4.694000E-5,-0.035900
4.695000E-5,-0.029900
4.696000E-5,-0.024062
4.697000E-5,-0.018416
4.698000E-5,-0.013065
4.699000E-5,-0.007927
4.700000E-5,-0.002953
4.701000E-5,0.001777
4.702000E-5,0.006301
4.703000E-5,0.010612
4.704000E-5,0.014640
4.705000E-5,0.018418
4.706000E-5,0.022028
4.707000E-5,0.025391
4.708000E-5,0.028520
4.709000E-5,0.031388
4.710000E-5,0.034045
4.711000E-5,0.036536
4.712000E-5,0.038828
4.713000E-5,0.040954
4.714000E-5,0.042852
4.715000E-5,0.044550
4.716000E-5,0.046051
4.717000E-5,0.047319
4.718000E-5,0.048359
4.719000E-5,0.049178
4.720000E-5,0.049834
4.721000E-5,0.050310
4.722000E-5,0.050534
4.723000E-5,0.050535
4.724000E-5,0.050337
4.725000E-5,0.049897
4.726000E-5,0.049182
4.727000E-5,0.048246
4.728000E-5,0.047155
4.729000E-5,0.045889
4.730000E-5,0.044506
4.731000E-5,0.043048
4.732000E-5,0.041507
4.733000E-5,0.039865
4.734000E-5,0.038100
4.735000E-5,0.036157
4.736000E-5,0.034065
4.737000E-5,0.031863
4.738000E-5,0.029507
4.739000E-5,0.027042
4.740000E-5,0.024392
4.741000E-5,0.021638
4.742000E-5,0.018823
4.743000E-5,0.015877
4.744000E-5,0.012851
4.745000E-5,0.009668
4.746000E-5,0.006359
4.747000E-5,0.003034
4.748000E-5,-0.000394
4.749000E-5,-0.003908
4.750000E-5,-0.007478
4.751000E-5,-0.011127
4.752000E-5,-0.014751
4.753000E-5,-0.018361
4.754000E-5,-0.022009
4.755000E-5,-0.025644
4.756000E-5,-0.029191
4.757000E-5,-0.032661
4.758000E-5,-0.036074
4.759000E-5,-0.039404
4.760000E-5,-0.042628
4.761000E-5,-0.045753
4.762000E-5,-0.048748
4.763000E-5,-0.051585
4.764000E-5,-0.054230
4.765000E-5,-0.056708
4.766000E-5,-0.059055
4.767000E-5,-0.061211
4.768000E-5,-0.063177
4.769000E-5,-0.064937
4.770000E-5,-0.066488
4.771000E-5,-0.067872
4.772000E-5,-0.069021
4.773000E-5,-0.069913
4.774000E-5,-0.070557
4.775000E-5,-0.070982
4.776000E-5,-0.071210
4.777000E-5,-0.071220
4.778000E-5,-0.071019
4.779000E-5,-0.070586
4.780000E-5,-0.069889
4.781000E-5,-0.068910
4.782000E-5,-0.067625
4.783000E-5,-0.066062
4.784000E-5,-0.064297
4.785000E-5,-0.062298
4.786000E-5,-0.060062
4.787000E-5,-0.057580
4.788000E-5,-0.054788
4.789000E-5,-0.051656
4.790000E-5,-0.048233
4.791000E-5,-0.044648
4.792000E-5,-0.040897
4.793000E-5,-0.036958
4.794000E-5,-0.032887
4.795000E-5,-0.028623
4.796000E-5,-0.024094
4.797000E-5,-0.019345
4.798000E-5,-0.014422
4.799000E-5,-0.009408
4.800000E-5,-0.004259
4.801000E-5,0.001020
4.802000E-5,0.006402
4.803000E-5,0.011982
4.804000E-5,0.017736
4.805000E-5,0.023570
4.806000E-5,0.029509
4.807000E-5,0.035696
4.808000E-5,0.042019
4.809000E-5,0.048350
4.810000E-5,0.054743
4.811000E-5,0.061314
4.812000E-5,0.067953
4.813000E-5,0.074598
4.814000E-5,0.081367
4.815000E-5,0.088244
4.816000E-5,0.095265
4.817000E-5,0.102364
4.818000E-5,0.109519
4.819000E-5,0.116739
4.820000E-5,0.123960
4.821000E-5,0.131122
4.822000E-5,0.138136
4.823000E-5,0.145069
4.824000E-5,0.151970
4.825000E-5,0.158815
4.826000E-5,0.165668
4.827000E-5,0.172609
4.828000E-5,0.179575
4.829000E-5,0.186469
4.830000E-5,0.193218
4.831000E-5,0.199910
4.832000E-5,0.206551
4.833000E-5,0.213076
4.834000E-5,0.219500
4.835000E-5,0.225703
4.836000E-5,0.231647
4.837000E-5,0.237397
4.838000E-5,0.242988
4.839000E-5,0.248459
4.840000E-5,0.253856
4.841000E-5,0.259224
4.842000E-5,0.264561
4.843000E-5,0.269805
4.844000E-5,0.274951
4.845000E-5,0.279886
4.846000E-5,0.284611
4.847000E-5,0.289228
4.848000E-5,0.293674
4.849000E-5,0.297808
4.850000E-5,0.301526
4.851000E-5,0.304875
4.852000E-5,0.307906
4.853000E-5,0.310719
4.854000E-5,0.313324
4.855000E-5,0.315703
4.856000E-5,0.317877
4.857000E-5,0.319855
4.858000E-5,0.321692
4.859000E-5,0.323305
4.860000E-5,0.324636
4.861000E-5,0.325685
4.862000E-5,0.326369
4.863000E-5,0.326736
4.864000E-5,0.326883
4.865000E-5,0.326803
4.866000E-5,0.326490
4.867000E-5,0.325869
4.868000E-5,0.324951
4.869000E-5,0.323777
4.870000E-5,0.322316
4.871000E-5,0.320638
4.872000E-5,0.318796
4.873000E-5,0.316756
4.874000E-5,0.314501
4.875000E-5,0.312020
4.876000E-5,0.309283
4.877000E-5,0.306317
4.878000E-5,0.303158
4.879000E-5,0.299753
4.880000E-5,0.296095
4.881000E-5,0.292227
4.882000E-5,0.288186
4.883000E-5,0.283939
4.884000E-5,0.279496
4.885000E-5,0.274877
4.886000E-5,0.270080
4.887000E-5,0.265107
4.888000E-5,0.259950
4.889000E-5,0.254745
4.890000E-5,0.249524
4.891000E-5,0.244208
4.892000E-5,0.238782
4.893000E-5,0.233309
4.894000E-5,0.227797
4.895000E-5,0.222186
4.896000E-5,0.216531
4.897000E-5,0.210843
4.898000E-5,0.205095
4.899000E-5,0.199285
4.900000E-5,0.193446
4.901000E-5,0.187565
4.902000E-5,0.181697
4.903000E-5,0.175829
4.904000E-5,0.169913
4.905000E-5,0.163923
4.906000E-5,0.157908
4.907000E-5,0.151979
4.908000E-5,0.146054
4.909000E-5,0.140087
4.910000E-5,0.134144
4.911000E-5,0.128264
4.912000E-5,0.122367
4.913000E-5,0.116512
4.914000E-5,0.110737
4.915000E-5,0.104982
4.916000E-5,0.099313
4.917000E-5,0.093786
4.918000E-5,0.088325
4.919000E-5,0.082972
4.920000E-5,0.077717
4.921000E-5,0.072578
4.922000E-5,0.067525
4.923000E-5,0.062525
4.924000E-5,0.057692
4.925000E-5,0.052892
4.926000E-5,0.048172
4.927000E-5,0.043596
4.928000E-5,0.039114
4.929000E-5,0.034759
4.930000E-5,0.030554
4.931000E-5,0.026478
4.932000E-5,0.022534
4.933000E-5,0.018729
4.934000E-5,0.015072
4.935000E-5,0.011541
4.936000E-5,0.008094
4.937000E-5,0.004777
4.938000E-5,0.001568
4.939000E-5,-0.001540
4.940000E-5,-0.004515
4.941000E-5,-0.007366
4.942000E-5,-0.010087
4.943000E-5,-0.012669
4.944000E-5,-0.015129
4.945000E-5,-0.017503
4.946000E-5,-0.019805
4.947000E-5,-0.021934
4.948000E-5,-0.023872
4.949000E-5,-0.025687
4.950000E-5,-0.027366
4.951000E-5,-0.028926
4.952000E-5,-0.030320
4.953000E-5,-0.031587
4.954000E-5,-0.032807
4.955000E-5,-0.033975
4.956000E-5,-0.035011
4.957000E-5,-0.035875
4.958000E-5,-0.036760
4.959000E-5,-0.037597
4.960000E-5,-0.038288
4.961000E-5,-0.038951
4.962000E-5,-0.039522
4.963000E-5,-0.039954
4.964000E-5,-0.040351
4.965000E-5,-0.040698
4.966000E-5,-0.040942
4.967000E-5,-0.041163
4.968000E-5,-0.041362
4.969000E-5,-0.041510
4.970000E-5,-0.041632
4.971000E-5,-0.041713
4.972000E-5,-0.041770
4.973000E-5,-0.041802
4.974000E-5,-0.041840
4.975000E-5,-0.041897
4.976000E-5,-0.041958
4.977000E-5,-0.042010
4.978000E-5,-0.042129
4.979000E-5,-0.042315
4.980000E-5,-0.042485
4.981000E-5,-0.042668
4.982000E-5,-0.042943
4.983000E-5,-0.043263
4.984000E-5,-0.043653
4.985000E-5,-0.044196
4.986000E-5,-0.044787
4.987000E-5,-0.045372
4.988000E-5,-0.046029
4.989000E-5,-0.046861
4.990000E-5,-0.047747
4.991000E-5,-0.048719
4.992000E-5,-0.049850
4.993000E-5,-0.051027
4.994000E-5,-0.052244
4.995000E-5,-0.053407
4.996000E-5,-0.054545
4.997000E-5,-0.055755
4.998000E-5,-0.056927
4.999000E-5,-0.058060
5.000000E-5,-0.059318
5.001000E-5,-0.060786
5.002000E-5,-0.062342
5.003000E-5,-0.064036
5.004000E-5,-0.065925
5.005000E-5,-0.067842
5.006000E-5,-0.069811
5.007000E-5,-0.071919
5.008000E-5,-0.074110
5.009000E-5,-0.076254
5.010000E-5,-0.078336
5.011000E-5,-0.080398
5.012000E-5,-0.082452
5.013000E-5,-0.084452
5.014000E-5,-0.086496
5.015000E-5,-0.088667
5.016000E-5,-0.090926
5.017000E-5,-0.093260
5.018000E-5,-0.095585
5.019000E-5,-0.097839
5.020000E-5,-0.099987
5.021000E-5,-0.102164
5.022000E-5,-0.104488
5.023000E-5,-0.106927
5.024000E-5,-0.109525
5.025000E-5,-0.112284
5.026000E-5,-0.115081
5.027000E-5,-0.117961
5.028000E-5,-0.121071
5.029000E-5,-0.124386
5.030000E-5,-0.127755
5.031000E-5,-0.131152
5.032000E-5,-0.134527
5.033000E-5,-0.137753
5.034000E-5,-0.140897
5.035000E-5,-0.144034
5.036000E-5,-0.147174
5.037000E-5,-0.150297
5.038000E-5,-0.153451
5.039000E-5,-0.156692
5.040000E-5,-0.159956
5.041000E-5,-0.163179
5.042000E-5,-0.166301
5.043000E-5,-0.169328
5.044000E-5,-0.172337
5.045000E-5,-0.175260
5.046000E-5,-0.178096
5.047000E-5,-0.180993
5.048000E-5,-0.183902
5.049000E-5,-0.186732
5.050000E-5,-0.189518
5.051000E-5,-0.192242
5.052000E-5,-0.194838
5.053000E-5,-0.197265
5.054000E-5,-0.199525
5.055000E-5,-0.201662
5.056000E-5,-0.203636
5.057000E-5,-0.205422
5.058000E-5,-0.207101
5.059000E-5,-0.208561
5.060000E-5,-0.209729
5.061000E-5,-0.210729
5.062000E-5,-0.211601
5.063000E-5,-0.212398
5.064000E-5,-0.213178
5.065000E-5,-0.213899
5.066000E-5,-0.214547
5.067000E-5,-0.215153
5.068000E-5,-0.215681
5.069000E-5,-0.216090
5.070000E-5,-0.216428
5.071000E-5,-0.216681
5.072000E-5,-0.216861
5.073000E-5,-0.216954
5.074000E-5,-0.216986
5.075000E-5,-0.216966
5.076000E-5,-0.216782
5.077000E-5,-0.216404
5.078000E-5,-0.215819
5.079000E-5,-0.215027
5.080000E-5,-0.214011
5.081000E-5,-0.212721
5.082000E-5,-0.211207
5.083000E-5,-0.209550
5.084000E-5,-0.207765
5.085000E-5,-0.205824
5.086000E-5,-0.203764
5.087000E-5,-0.201614
5.088000E-5,-0.199346
5.089000E-5,-0.197059
5.090000E-5,-0.194702
5.091000E-5,-0.192223
5.092000E-5,-0.189723
5.093000E-5,-0.187171
5.094000E-5,-0.184587
5.095000E-5,-0.181935
5.096000E-5,-0.179148
5.097000E-5,-0.176316
5.098000E-5,-0.173408
5.099000E-5,-0.170424
5.100000E-5,-0.167436
5.101000E-5,-0.164349
5.102000E-5,-0.161172
5.103000E-5,-0.157927
5.104000E-5,-0.154671
5.105000E-5,-0.151374
5.106000E-5,-0.147986
5.107000E-5,-0.144580
5.108000E-5,-0.141090
5.109000E-5,-0.137561
5.110000E-5,-0.134027
5.111000E-5,-0.130452
5.112000E-5,-0.126843
5.113000E-5,-0.123156
5.114000E-5,-0.119458
5.115000E-5,-0.115812
5.116000E-5,-0.112171
5.117000E-5,-0.108505
5.118000E-5,-0.104763
5.119000E-5,-0.101012
5.120000E-5,-0.097286
5.121000E-5,-0.093512
5.122000E-5,-0.089775
5.123000E-5,-0.086101
5.124000E-5,-0.082430
5.125000E-5,-0.078767
5.126000E-5,-0.075111
5.127000E-5,-0.071437
5.128000E-5,-0.067810
5.129000E-5,-0.064213
5.130000E-5,-0.060663
5.131000E-5,-0.057150
5.132000E-5,-0.053608
5.133000E-5,-0.050121
5.134000E-5,-0.046685
5.135000E-5,-0.043304
5.136000E-5,-0.040009
5.137000E-5,-0.036789
5.138000E-5,-0.033588
5.139000E-5,-0.030417
5.140000E-5,-0.027339
5.141000E-5,-0.024331
5.142000E-5,-0.021398
5.143000E-5,-0.018547
5.144000E-5,-0.015744
5.145000E-5,-0.013013
5.146000E-5,-0.010385
5.147000E-5,-0.007838
5.148000E-5,-0.005394
5.149000E-5,-0.003018
5.150000E-5,-0.000704
5.151000E-5,0.001511
5.152000E-5,0.003649
5.153000E-5,0.005724
5.154000E-5,0.007734
5.155000E-5,0.009616
5.156000E-5,0.011405
5.157000E-5,0.013139
5.158000E-5,0.014775
5.159000E-5,0.016320
5.160000E-5,0.017761
5.161000E-5,0.019171
5.162000E-5,0.020513
5.163000E-5,0.021696
5.164000E-5,0.022779
5.165000E-5,0.023831
5.166000E-5,0.024834
5.167000E-5,0.025741
5.168000E-5,0.026546
5.169000E-5,0.027294
5.170000E-5,0.027951
5.171000E-5,0.028504
5.172000E-5,0.029043
5.173000E-5,0.029538
5.174000E-5,0.029962
5.175000E-5,0.030295
5.176000E-5,0.030584
5.177000E-5,0.030792
5.178000E-5,0.030939
5.179000E-5,0.031110
5.180000E-5,0.031255
5.181000E-5,0.031361
5.182000E-5,0.031407
5.183000E-5,0.031396
5.184000E-5,0.031357
5.185000E-5,0.031293
5.186000E-5,0.031190
5.187000E-5,0.031071
5.188000E-5,0.030923
5.189000E-5,0.030760
5.190000E-5,0.030627
5.191000E-5,0.030566
5.192000E-5,0.030553
5.193000E-5,0.030550
5.194000E-5,0.030528
5.195000E-5,0.030473
5.196000E-5,0.030467
5.197000E-5,0.030513
5.198000E-5,0.030596
5.199000E-5,0.030742
5.200000E-5,0.030950
5.201000E-5,0.031130
5.202000E-5,0.031320
5.203000E-5,0.031589
5.204000E-5,0.031921
5.205000E-5,0.032320
5.206000E-5,0.032747
5.207000E-5,0.033249
5.208000E-5,0.033825
5.209000E-5,0.034419
5.210000E-5,0.035095
5.211000E-5,0.035813
5.212000E-5,0.036527
5.213000E-5,0.037286
5.214000E-5,0.038110
5.215000E-5,0.038965
5.216000E-5,0.039828
5.217000E-5,0.040726
5.218000E-5,0.041677
5.219000E-5,0.042636
5.220000E-5,0.043621
5.221000E-5,0.044623
5.222000E-5,0.045648
5.223000E-5,0.046742
5.224000E-5,0.047867
5.225000E-5,0.048975
5.226000E-5,0.050080
5.227000E-5,0.051231
5.228000E-5,0.052438
5.229000E-5,0.053720
5.230000E-5,0.055091
5.231000E-5,0.056562
5.232000E-5,0.058176
5.233000E-5,0.059919
5.234000E-5,0.061632
5.235000E-5,0.063337
5.236000E-5,0.065137
5.237000E-5,0.066976
5.238000E-5,0.068857
5.239000E-5,0.070819
5.240000E-5,0.072849
5.241000E-5,0.074918
5.242000E-5,0.076981
5.243000E-5,0.079061
5.244000E-5,0.081171
5.245000E-5,0.083283
5.246000E-5,0.085374
5.247000E-5,0.087348
5.248000E-5,0.089177
5.249000E-5,0.090901
5.250000E-5,0.092555
5.251000E-5,0.094126
5.252000E-5,0.095700
5.253000E-5,0.097346
5.254000E-5,0.099008
5.255000E-5,0.100647
5.256000E-5,0.102199
5.257000E-5,0.103677
5.258000E-5,0.105118
5.259000E-5,0.106422
5.260000E-5,0.107591
5.261000E-5,0.108699
5.262000E-5,0.109741
5.263000E-5,0.110767
5.264000E-5,0.111761
5.265000E-5,0.112717
5.266000E-5,0.113712
5.267000E-5,0.114651
5.268000E-5,0.115571
5.269000E-5,0.116491
5.270000E-5,0.117289
5.271000E-5,0.118083
5.272000E-5,0.118779
5.273000E-5,0.119407
5.274000E-5,0.119991
5.275000E-5,0.120454
5.276000E-5,0.120862
5.277000E-5,0.121125
5.278000E-5,0.121233
5.279000E-5,0.121235
5.280000E-5,0.121120
5.281000E-5,0.120872
5.282000E-5,0.120467
5.283000E-5,0.119948
5.284000E-5,0.119368
5.285000E-5,0.118704
5.286000E-5,0.117973
5.287000E-5,0.117172
5.288000E-5,0.116304
5.289000E-5,0.115360
5.290000E-5,0.114343
5.291000E-5,0.113286
5.292000E-5,0.112122
5.293000E-5,0.110841
5.294000E-5,0.109435
5.295000E-5,0.107905
5.296000E-5,0.106272
5.297000E-5,0.104569
5.298000E-5,0.102868
5.299000E-5,0.101020
5.300000E-5,0.098992
5.301000E-5,0.096856
5.302000E-5,0.094671
5.303000E-5,0.092391
5.304000E-5,0.089988
5.305000E-5,0.087564
5.306000E-5,0.085057
5.307000E-5,0.082455
5.308000E-5,0.079806
5.309000E-5,0.077082
5.310000E-5,0.074311
5.311000E-5,0.071435
5.312000E-5,0.068483
5.313000E-5,0.065519
5.314000E-5,0.062414
5.315000E-5,0.059178
5.316000E-5,0.055926
5.317000E-5,0.052651
5.318000E-5,0.049302
5.319000E-5,0.045886
5.320000E-5,0.042454
5.321000E-5,0.039040
5.322000E-5,0.035579
5.323000E-5,0.032132
5.324000E-5,0.028736
5.325000E-5,0.025398
5.326000E-5,0.022146
5.327000E-5,0.018922
5.328000E-5,0.015766
5.329000E-5,0.012625
5.330000E-5,0.009487
5.331000E-5,0.006358
5.332000E-5,0.003249
5.333000E-5,0.000179
5.334000E-5,-0.002877
5.335000E-5,-0.005887
5.336000E-5,-0.008884
5.337000E-5,-0.011842
5.338000E-5,-0.014729
5.339000E-5,-0.017593
5.340000E-5,-0.020388
5.341000E-5,-0.023091
5.342000E-5,-0.025723
5.343000E-5,-0.028253
5.344000E-5,-0.030681
5.345000E-5,-0.033028
5.346000E-5,-0.035367
5.347000E-5,-0.037642
5.348000E-5,-0.039767
5.349000E-5,-0.041831
5.350000E-5,-0.043868
5.351000E-5,-0.045825
5.352000E-5,-0.047668
5.353000E-5,-0.049368
5.354000E-5,-0.050994
5.355000E-5,-0.052494
5.356000E-5,-0.053836
5.357000E-5,-0.055138
5.358000E-5,-0.056320
5.359000E-5,-0.057322
5.360000E-5,-0.058226
5.361000E-5,-0.059006
5.362000E-5,-0.059709
5.363000E-5,-0.060357
5.364000E-5,-0.060895
5.365000E-5,-0.061298
5.366000E-5,-0.061533
5.367000E-5,-0.061664
5.368000E-5,-0.061710
5.369000E-5,-0.061664
5.370000E-5,-0.061540
5.371000E-5,-0.061289
5.372000E-5,-0.060938
5.373000E-5,-0.060548
5.374000E-5,-0.060036
5.375000E-5,-0.059400
5.376000E-5,-0.058674
5.377000E-5,-0.057877
5.378000E-5,-0.057041
5.379000E-5,-0.056112
5.380000E-5,-0.055094
5.381000E-5,-0.053987
5.382000E-5,-0.052793
5.383000E-5,-0.051548
5.384000E-5,-0.050212
5.385000E-5,-0.048797
5.386000E-5,-0.047231
5.387000E-5,-0.045607
5.388000E-5,-0.044022
5.389000E-5,-0.042320
5.390000E-5,-0.040502
5.391000E-5,-0.038589
5.392000E-5,-0.036686
5.393000E-5,-0.034733
5.394000E-5,-0.032634
5.395000E-5,-0.030512
5.396000E-5,-0.028329
5.397000E-5,-0.026097
5.398000E-5,-0.023764
5.399000E-5,-0.021346
5.400000E-5,-0.018962
5.401000E-5,-0.016559
5.402000E-5,-0.014162
5.403000E-5,-0.011746
5.404000E-5,-0.009330
5.405000E-5,-0.006961
5.406000E-5,-0.004547
5.407000E-5,-0.002101
5.408000E-5,0.000343
5.409000E-5,0.002782
5.410000E-5,0.005134
5.411000E-5,0.007419
5.412000E-5,0.009650
5.413000E-5,0.011834
5.414000E-5,0.014005
5.415000E-5,0.016081
5.416000E-5,0.018026
5.417000E-5,0.019900
5.418000E-5,0.021695
5.419000E-5,0.023383
5.420000E-5,0.025008
5.421000E-5,0.026584
5.422000E-5,0.028053
5.423000E-5,0.029404
5.424000E-5,0.030630
5.425000E-5,0.031741
5.426000E-5,0.032756
5.427000E-5,0.033660
5.428000E-5,0.034508
5.429000E-5,0.035270
5.430000E-5,0.035922
5.431000E-5,0.036407
5.432000E-5,0.036712
5.433000E-5,0.036941
5.434000E-5,0.037047
5.435000E-5,0.037007
5.436000E-5,0.036860
5.437000E-5,0.036591
5.438000E-5,0.036160
5.439000E-5,0.035633
5.440000E-5,0.035034
5.441000E-5,0.034253
5.442000E-5,0.033298
5.443000E-5,0.032248
5.444000E-5,0.031116
5.445000E-5,0.029942
5.446000E-5,0.028722
5.447000E-5,0.027403
5.448000E-5,0.025969
5.449000E-5,0.024398
5.450000E-5,0.022719
5.451000E-5,0.020896
5.452000E-5,0.018943
5.453000E-5,0.016848
5.454000E-5,0.014605
5.455000E-5,0.012315
5.456000E-5,0.009955
5.457000E-5,0.007567
5.458000E-5,0.005113
5.459000E-5,0.002478
5.460000E-5,-0.000206
5.461000E-5,-0.002890
5.462000E-5,-0.005606
5.463000E-5,-0.008313
5.464000E-5,-0.011085
5.465000E-5,-0.013822
5.466000E-5,-0.016437
5.467000E-5,-0.018987
5.468000E-5,-0.021492
5.469000E-5,-0.024034
5.470000E-5,-0.026581
5.471000E-5,-0.029085
5.472000E-5,-0.031587
5.473000E-5,-0.034119
5.474000E-5,-0.036668
5.475000E-5,-0.039187
5.476000E-5,-0.041645
5.477000E-5,-0.044105
5.478000E-5,-0.046605
5.479000E-5,-0.049054
5.480000E-5,-0.051443
5.481000E-5,-0.053765
5.482000E-5,-0.055974
5.483000E-5,-0.058143
5.484000E-5,-0.060313
5.485000E-5,-0.062566
5.486000E-5,-0.064838
5.487000E-5,-0.067033
5.488000E-5,-0.069257
5.489000E-5,-0.071483
5.490000E-5,-0.073674
5.491000E-5,-0.075783
5.492000E-5,-0.077811
5.493000E-5,-0.079843
5.494000E-5,-0.081826
5.495000E-5,-0.083758
5.496000E-5,-0.085682
5.497000E-5,-0.087588
5.498000E-5,-0.089365
5.499000E-5,-0.091010
5.500000E-5,-0.092588
5.501000E-5,-0.094035
5.502000E-5,-0.095384
5.503000E-5,-0.096627
5.504000E-5,-0.097753
5.505000E-5,-0.098778
5.506000E-5,-0.099627
5.507000E-5,-0.100347
5.508000E-5,-0.100985
5.509000E-5,-0.101535
5.510000E-5,-0.101979
5.511000E-5,-0.102248
5.512000E-5,-0.102442
5.513000E-5,-0.102591
5.514000E-5,-0.102647
5.515000E-5,-0.102613
5.516000E-5,-0.102471
5.517000E-5,-0.102162
5.518000E-5,-0.101641
5.519000E-5,-0.100982
5.520000E-5,-0.100241
5.521000E-5,-0.099400
5.522000E-5,-0.098422
5.523000E-5,-0.097328
5.524000E-5,-0.096138
5.525000E-5,-0.094836
5.526000E-5,-0.093435
5.527000E-5,-0.091883
5.528000E-5,-0.090197
5.529000E-5,-0.088405
5.530000E-5,-0.086485
5.531000E-5,-0.084467
5.532000E-5,-0.082399
5.533000E-5,-0.080273
5.534000E-5,-0.078038
5.535000E-5,-0.075721
5.536000E-5,-0.073329
5.537000E-5,-0.070856
5.538000E-5,-0.068278
5.539000E-5,-0.065619
5.540000E-5,-0.062935
5.541000E-5,-0.060182
5.542000E-5,-0.057351
5.543000E-5,-0.054480
5.544000E-5,-0.051559
5.545000E-5,-0.048609
5.546000E-5,-0.045621
5.547000E-5,-0.042638
5.548000E-5,-0.039641
5.549000E-5,-0.036645
5.550000E-5,-0.033659
5.551000E-5,-0.030640
5.552000E-5,-0.027599
5.553000E-5,-0.024577
5.554000E-5,-0.021530
5.555000E-5,-0.018426
5.556000E-5,-0.015337
5.557000E-5,-0.012247
5.558000E-5,-0.009180
5.559000E-5,-0.006141
5.560000E-5,-0.003148
5.561000E-5,-0.000189
5.562000E-5,0.002745
5.563000E-5,0.005582
5.564000E-5,0.008290
5.565000E-5,0.010943
5.566000E-5,0.013558
5.567000E-5,0.016106
5.568000E-5,0.018585
5.569000E-5,0.020957
5.570000E-5,0.023252
5.571000E-5,0.025504
5.572000E-5,0.027677
5.573000E-5,0.029733
5.574000E-5,0.031695
5.575000E-5,0.033558
5.576000E-5,0.035356
5.577000E-5,0.037083
5.578000E-5,0.038667
5.579000E-5,0.040161
5.580000E-5,0.041545
5.581000E-5,0.042806
5.582000E-5,0.044025
5.583000E-5,0.045145
5.584000E-5,0.046054
5.585000E-5,0.046851
5.586000E-5,0.047538
5.587000E-5,0.048098
5.588000E-5,0.048627
5.589000E-5,0.049054
5.590000E-5,0.049353
5.591000E-5,0.049551
5.592000E-5,0.049585
5.593000E-5,0.049499
5.594000E-5,0.049340
5.595000E-5,0.049081
5.596000E-5,0.048720
5.597000E-5,0.048204
5.598000E-5,0.047604
5.599000E-5,0.046967
5.600000E-5,0.046231
5.601000E-5,0.045386
5.602000E-5,0.044444
5.603000E-5,0.043455
5.604000E-5,0.042378
5.605000E-5,0.041232
5.606000E-5,0.040079
5.607000E-5,0.038885
5.608000E-5,0.037639
5.609000E-5,0.036409
5.610000E-5,0.035155
5.611000E-5,0.033821
5.612000E-5,0.032434
5.613000E-5,0.030991
5.614000E-5,0.029560
5.615000E-5,0.028130
5.616000E-5,0.026687
5.617000E-5,0.025271
5.618000E-5,0.023875
5.619000E-5,0.022472
5.620000E-5,0.021093
5.621000E-5,0.019755
5.622000E-5,0.018421
5.623000E-5,0.017129
5.624000E-5,0.015901
5.625000E-5,0.014701
5.626000E-5,0.013508
5.627000E-5,0.012368
5.628000E-5,0.011257
5.629000E-5,0.010163
5.630000E-5,0.009115
5.631000E-5,0.008127
5.632000E-5,0.007185
5.633000E-5,0.006288
5.634000E-5,0.005450
5.635000E-5,0.004620
5.636000E-5,0.003878
5.637000E-5,0.003236
5.638000E-5,0.002641
5.639000E-5,0.002143
5.640000E-5,0.001738
5.641000E-5,0.001445
5.642000E-5,0.001240
5.643000E-5,0.001147
5.644000E-5,0.001198
5.645000E-5,0.001396
5.646000E-5,0.001869
5.647000E-5,0.002522
5.648000E-5,0.003240
5.649000E-5,0.004104
5.650000E-5,0.005087
5.651000E-5,0.006232
5.652000E-5,0.007646
5.653000E-5,0.009232
5.654000E-5,0.010944
5.655000E-5,0.012812
5.656000E-5,0.014912
5.657000E-5,0.017224
5.658000E-5,0.019639
5.659000E-5,0.022140
5.660000E-5,0.024714
5.661000E-5,0.027419
5.662000E-5,0.030224
5.663000E-5,0.033163
5.664000E-5,0.036235
5.665000E-5,0.039358
5.666000E-5,0.042497
5.667000E-5,0.045711
5.668000E-5,0.049099
5.669000E-5,0.052671
5.670000E-5,0.056407
5.671000E-5,0.060310
5.672000E-5,0.064410
5.673000E-5,0.068629
5.674000E-5,0.072985
5.675000E-5,0.077496
5.676000E-5,0.082033
5.677000E-5,0.086631
5.678000E-5,0.091468
5.679000E-5,0.096540
5.680000E-5,0.101667
5.681000E-5,0.106796
5.682000E-5,0.112020
5.683000E-5,0.117426
5.684000E-5,0.122985
5.685000E-5,0.128661
5.686000E-5,0.134520
5.687000E-5,0.140503
5.688000E-5,0.146474
5.689000E-5,0.152298
5.690000E-5,0.157962
5.691000E-5,0.163557
5.692000E-5,0.169056
5.693000E-5,0.174431
5.694000E-5,0.179772
5.695000E-5,0.185165
5.696000E-5,0.190642
5.697000E-5,0.196128
5.698000E-5,0.201456
5.699000E-5,0.206631
5.700000E-5,0.211894
5.701000E-5,0.217332
5.702000E-5,0.222911
5.703000E-5,0.228444
5.704000E-5,0.233696
5.705000E-5,0.238592
5.706000E-5,0.243271
5.707000E-5,0.247936
5.708000E-5,0.252565
5.709000E-5,0.257208
5.710000E-5,0.261995
5.711000E-5,0.266876
5.712000E-5,0.271777
5.713000E-5,0.276667
5.714000E-5,0.281418
5.715000E-5,0.285949
5.716000E-5,0.290176
5.717000E-5,0.294040
5.718000E-5,0.297640
5.719000E-5,0.301067
5.720000E-5,0.304293
5.721000E-5,0.307405
5.722000E-5,0.310404
5.723000E-5,0.313160
5.724000E-5,0.315693
5.725000E-5,0.318043
5.726000E-5,0.320183
5.727000E-5,0.322098
5.728000E-5,0.323827
5.729000E-5,0.325305
5.730000E-5,0.326445
5.731000E-5,0.327222
5.732000E-5,0.327678
5.733000E-5,0.327908
5.734000E-5,0.327886
5.735000E-5,0.327577
5.736000E-5,0.326993
5.737000E-5,0.326160
5.738000E-5,0.325122
5.739000E-5,0.323934
5.740000E-5,0.322544
5.741000E-5,0.320919
5.742000E-5,0.319071
5.743000E-5,0.316933
5.744000E-5,0.314490
5.745000E-5,0.311756
5.746000E-5,0.308755
5.747000E-5,0.305479
5.748000E-5,0.301943
5.749000E-5,0.298142
5.750000E-5,0.294019
5.751000E-5,0.289608
5.752000E-5,0.284968
5.753000E-5,0.280093
5.754000E-5,0.274944
5.755000E-5,0.269566
5.756000E-5,0.263947
5.757000E-5,0.258028
5.758000E-5,0.251871
5.759000E-5,0.245544
5.760000E-5,0.239042
5.761000E-5,0.232318
5.762000E-5,0.225418
5.763000E-5,0.218331
5.764000E-5,0.210997
5.765000E-5,0.203486
5.766000E-5,0.195774
5.767000E-5,0.187901
5.768000E-5,0.179885
5.769000E-5,0.171623
5.770000E-5,0.163094
5.771000E-5,0.154350
5.772000E-5,0.145405
5.773000E-5,0.136266
5.774000E-5,0.127040
5.775000E-5,0.117665
5.776000E-5,0.108149
5.777000E-5,0.098525
5.778000E-5,0.088740
5.779000E-5,0.078880
5.780000E-5,0.068935
5.781000E-5,0.058944
5.782000E-5,0.048960
5.783000E-5,0.038970
5.784000E-5,0.028962
5.785000E-5,0.018865
5.786000E-5,0.008613
5.787000E-5,-0.001772
5.788000E-5,-0.012241
5.789000E-5,-0.022739
5.790000E-5,-0.033227
5.791000E-5,-0.043781
5.792000E-5,-0.054363
5.793000E-5,-0.064854
5.794000E-5,-0.075319
5.795000E-5,-0.085802
5.796000E-5,-0.096149
5.797000E-5,-0.106306
5.798000E-5,-0.116508
5.799000E-5,-0.126786
5.800000E-5,-0.137023
5.801000E-5,-0.147225
5.802000E-5,-0.157378
5.803000E-5,-0.167424
5.804000E-5,-0.177353
5.805000E-5,-0.187304
5.806000E-5,-0.197123
5.807000E-5,-0.206581
5.808000E-5,-0.215725
5.809000E-5,-0.224746
5.810000E-5,-0.233669
5.811000E-5,-0.242399
5.812000E-5,-0.250923
5.813000E-5,-0.259207
5.814000E-5,-0.267338
5.815000E-5,-0.275382
5.816000E-5,-0.283301
5.817000E-5,-0.291051
5.818000E-5,-0.298549
5.819000E-5,-0.305748
5.820000E-5,-0.312621
5.821000E-5,-0.319226
5.822000E-5,-0.325598
5.823000E-5,-0.331758
5.824000E-5,-0.337804
5.825000E-5,-0.343730
5.826000E-5,-0.349567
5.827000E-5,-0.355239
5.828000E-5,-0.360599
5.829000E-5,-0.365624
5.830000E-5,-0.370338
5.831000E-5,-0.374738
5.832000E-5,-0.378930
5.833000E-5,-0.383022
5.834000E-5,-0.386868
5.835000E-5,-0.390358
5.836000E-5,-0.393491
5.837000E-5,-0.396341
5.838000E-5,-0.398999
5.839000E-5,-0.401418
5.840000E-5,-0.403554
5.841000E-5,-0.405327
5.842000E-5,-0.406713
5.843000E-5,-0.407832
5.844000E-5,-0.408762
5.845000E-5,-0.409524
5.846000E-5,-0.410029
5.847000E-5,-0.410230
5.848000E-5,-0.410244
5.849000E-5,-0.410142
5.850000E-5,-0.409836
5.851000E-5,-0.409257
5.852000E-5,-0.408406
5.853000E-5,-0.407326
5.854000E-5,-0.406046
5.855000E-5,-0.404520
5.856000E-5,-0.402687
5.857000E-5,-0.400590
5.858000E-5,-0.398335
5.859000E-5,-0.395953
5.860000E-5,-0.393481
5.861000E-5,-0.390889
5.862000E-5,-0.388081
5.863000E-5,-0.385010
5.864000E-5,-0.381641
5.865000E-5,-0.378006
5.866000E-5,-0.374183
5.867000E-5,-0.370235
5.868000E-5,-0.366224
5.869000E-5,-0.362086
5.870000E-5,-0.357739
5.871000E-5,-0.353306
5.872000E-5,-0.348910
5.873000E-5,-0.344393
5.874000E-5,-0.339681
5.875000E-5,-0.334773
5.876000E-5,-0.329578
5.877000E-5,-0.324107
5.878000E-5,-0.318386
5.879000E-5,-0.312505
5.880000E-5,-0.306557
5.881000E-5,-0.300532
5.882000E-5,-0.294443
5.883000E-5,-0.288280
5.884000E-5,-0.282054
5.885000E-5,-0.275794
5.886000E-5,-0.269466
5.887000E-5,-0.263040
5.888000E-5,-0.256487
5.889000E-5,-0.249843
5.890000E-5,-0.243143
5.891000E-5,-0.236400
5.892000E-5,-0.229655
5.893000E-5,-0.222924
5.894000E-5,-0.216125
5.895000E-5,-0.209286
5.896000E-5,-0.202469
5.897000E-5,-0.195632
5.898000E-5,-0.188767
5.899000E-5,-0.181906
5.900000E-5,-0.175117
5.901000E-5,-0.168350
5.902000E-5,-0.161573
5.903000E-5,-0.154854
5.904000E-5,-0.148172
5.905000E-5,-0.141478
5.906000E-5,-0.134792
5.907000E-5,-0.128180
5.908000E-5,-0.121621
5.909000E-5,-0.115088
5.910000E-5,-0.108575
5.911000E-5,-0.102135
5.912000E-5,-0.095747
5.913000E-5,-0.089339
5.914000E-5,-0.082995
5.915000E-5,-0.076735
5.916000E-5,-0.070588
5.917000E-5,-0.064495
5.918000E-5,-0.058420
5.919000E-5,-0.052423
5.920000E-5,-0.046495
5.921000E-5,-0.040664
5.922000E-5,-0.034958
5.923000E-5,-0.029330
5.924000E-5,-0.023736
5.925000E-5,-0.018142
5.926000E-5,-0.012569
5.927000E-5,-0.007112
5.928000E-5,-0.001696
5.929000E-5,0.003608
5.930000E-5,0.008717
5.931000E-5,0.013717
5.932000E-5,0.018631
5.933000E-5,0.023399
5.934000E-5,0.028004
5.935000E-5,0.032545
5.936000E-5,0.037003
5.937000E-5,0.041382
5.938000E-5,0.045712
5.939000E-5,0.049997
5.940000E-5,0.054203
5.941000E-5,0.058298
5.942000E-5,0.062351
5.943000E-5,0.066328
5.944000E-5,0.070140
5.945000E-5,0.073860
5.946000E-5,0.077556
5.947000E-5,0.081188
5.948000E-5,0.084767
5.949000E-5,0.088324
5.950000E-5,0.091855
5.951000E-5,0.095327
5.952000E-5,0.098737
5.953000E-5,0.102146
5.954000E-5,0.105534
5.955000E-5,0.108841
5.956000E-5,0.112106
5.957000E-5,0.115347
5.958000E-5,0.118497
5.959000E-5,0.121517
5.960000E-5,0.124459
5.961000E-5,0.127377
5.962000E-5,0.130290
5.963000E-5,0.133185
5.964000E-5,0.136080
5.965000E-5,0.138922
5.966000E-5,0.141671
5.967000E-5,0.144341
5.968000E-5,0.146910
5.969000E-5,0.149335
5.970000E-5,0.151631
5.971000E-5,0.153893
5.972000E-5,0.156103
5.973000E-5,0.158318
5.974000E-5,0.160569
5.975000E-5,0.162823
5.976000E-5,0.165156
5.977000E-5,0.167510
5.978000E-5,0.169774
5.979000E-5,0.172019
5.980000E-5,0.174264
5.981000E-5,0.176506
5.982000E-5,0.178697
5.983000E-5,0.180745
5.984000E-5,0.182637
5.985000E-5,0.184404
5.986000E-5,0.186062
5.987000E-5,0.187591
5.988000E-5,0.189023
5.989000E-5,0.190366
5.990000E-5,0.191564
5.991000E-5,0.192592
5.992000E-5,0.193461
5.993000E-5,0.194220
5.994000E-5,0.194928
5.995000E-5,0.195607
5.996000E-5,0.196364
5.997000E-5,0.197196
5.998000E-5,0.198013
5.999000E-5,0.198741
6.000000E-5,0.199421
6.001000E-5,0.200073
6.002000E-5,0.200661
6.003000E-5,0.201167
6.004000E-5,0.201592
6.005000E-5,0.201967
6.006000E-5,0.202343
6.007000E-5,0.202712
6.008000E-5,0.203040
6.009000E-5,0.203318
6.010000E-5,0.203492
6.011000E-5,0.203530
6.012000E-5,0.203401
6.013000E-5,0.203133
6.014000E-5,0.202717
6.015000E-5,0.202151
6.016000E-5,0.201515
6.017000E-5,0.200825
6.018000E-5,0.200106
6.019000E-5,0.199368
6.020000E-5,0.198647
6.021000E-5,0.198024
6.022000E-5,0.197416
6.023000E-5,0.196810
6.024000E-5,0.196250
6.025000E-5,0.195642
6.026000E-5,0.194938
6.027000E-5,0.194201
6.028000E-5,0.193425
6.029000E-5,0.192550
6.030000E-5,0.191552
6.031000E-5,0.190379
6.032000E-5,0.189061
6.033000E-5,0.187635
6.034000E-5,0.186077
6.035000E-5,0.184396
6.036000E-5,0.182548
6.037000E-5,0.180551
6.038000E-5,0.178418
6.039000E-5,0.176173
6.040000E-5,0.173932
6.041000E-5,0.171596
6.042000E-5,0.169109
6.043000E-5,0.166538
6.044000E-5,0.163818
6.045000E-5,0.160987
6.046000E-5,0.158076
6.047000E-5,0.155100
6.048000E-5,0.152107
6.049000E-5,0.148989
6.050000E-5,0.145727
6.051000E-5,0.142424
6.052000E-5,0.139086
6.053000E-5,0.135607
6.054000E-5,0.131982
6.055000E-5,0.128351
6.056000E-5,0.124691
6.057000E-5,0.120930
6.058000E-5,0.117129
6.059000E-5,0.113279
6.060000E-5,0.109375
6.061000E-5,0.105417
6.062000E-5,0.101349
6.063000E-5,0.097247
6.064000E-5,0.093081
6.065000E-5,0.088861
6.066000E-5,0.084588
6.067000E-5,0.080221
6.068000E-5,0.075834
6.069000E-5,0.071406
6.070000E-5,0.066946
6.071000E-5,0.062483
6.072000E-5,0.057988
6.073000E-5,0.053520
6.074000E-5,0.049084
6.075000E-5,0.044637
6.076000E-5,0.040256
6.077000E-5,0.035940
6.078000E-5,0.031606
6.079000E-5,0.027305
6.080000E-5,0.023057
6.081000E-5,0.018773
6.082000E-5,0.014519
6.083000E-5,0.010314
6.084000E-5,0.006035
6.085000E-5,0.001726
6.086000E-5,-0.002640
6.087000E-5,-0.007090
6.088000E-5,-0.011614
6.089000E-5,-0.016109
6.090000E-5,-0.020535
6.091000E-5,-0.025014
6.092000E-5,-0.029503
6.093000E-5,-0.033887
6.094000E-5,-0.038228
6.095000E-5,-0.042577
6.096000E-5,-0.046770
6.097000E-5,-0.050914
6.098000E-5,-0.054997
6.099000E-5,-0.058973
6.100000E-5,-0.062937
6.101000E-5,-0.066836
6.102000E-5,-0.070609
6.103000E-5,-0.074225
6.104000E-5,-0.077742
6.105000E-5,-0.081101
6.106000E-5,-0.084325
6.107000E-5,-0.087426
6.108000E-5,-0.090299
6.109000E-5,-0.092961
6.110000E-5,-0.095474
6.111000E-5,-0.097795
6.112000E-5,-0.099943
6.113000E-5,-0.101900
6.114000E-5,-0.103654
6.115000E-5,-0.105276
6.116000E-5,-0.106775
6.117000E-5,-0.108110
6.118000E-5,-0.109306
6.119000E-5,-0.110452
6.120000E-5,-0.111528
6.121000E-5,-0.112477
6.122000E-5,-0.113230
6.123000E-5,-0.113844
6.124000E-5,-0.114388
6.125000E-5,-0.114820
6.126000E-5,-0.115115
6.127000E-5,-0.115334
6.128000E-5,-0.115453
6.129000E-5,-0.115352
6.130000E-5,-0.115091
6.131000E-5,-0.114789
6.132000E-5,-0.114406
6.133000E-5,-0.113946
6.134000E-5,-0.113419
6.135000E-5,-0.112785
6.136000E-5,-0.112014
6.137000E-5,-0.111156
6.138000E-5,-0.110192
6.139000E-5,-0.109115
6.140000E-5,-0.107944
6.141000E-5,-0.106664
6.142000E-5,-0.105301
6.143000E-5,-0.103854
6.144000E-5,-0.102321
6.145000E-5,-0.100650
6.146000E-5,-0.098864
6.147000E-5,-0.097041
6.148000E-5,-0.095156
6.149000E-5,-0.093222
6.150000E-5,-0.091237
6.151000E-5,-0.089176
6.152000E-5,-0.087103
6.153000E-5,-0.084958
6.154000E-5,-0.082746
6.155000E-5,-0.080467
6.156000E-5,-0.078154
6.157000E-5,-0.075891
6.158000E-5,-0.073623
6.159000E-5,-0.071246
6.160000E-5,-0.068804
6.161000E-5,-0.066368
6.162000E-5,-0.063925
6.163000E-5,-0.061438
6.164000E-5,-0.058991
6.165000E-5,-0.056543
6.166000E-5,-0.054012
6.167000E-5,-0.051520
6.168000E-5,-0.049069
6.169000E-5,-0.046568
6.170000E-5,-0.044102
6.171000E-5,-0.041737
6.172000E-5,-0.039359
6.173000E-5,-0.036937
6.174000E-5,-0.034583
6.175000E-5,-0.032320
6.176000E-5,-0.030054
6.177000E-5,-0.027862
6.178000E-5,-0.025700
6.179000E-5,-0.023572
6.180000E-5,-0.021542
6.181000E-5,-0.019612
6.182000E-5,-0.017729
6.183000E-5,-0.015868
6.184000E-5,-0.014136
6.185000E-5,-0.012511
6.186000E-5,-0.010841
6.187000E-5,-0.009230
6.188000E-5,-0.007771
6.189000E-5,-0.006362
6.190000E-5,-0.005002
6.191000E-5,-0.003706
6.192000E-5,-0.002494
6.193000E-5,-0.001403
6.194000E-5,-0.000478
6.195000E-5,0.000357
6.196000E-5,0.001131
6.197000E-5,0.001832
6.198000E-5,0.002462
6.199000E-5,0.003043
6.200000E-5,0.003591
6.201000E-5,0.004042
6.202000E-5,0.004412
6.203000E-5,0.004662
6.204000E-5,0.004818
6.205000E-5,0.004938
6.206000E-5,0.004968
6.207000E-5,0.004911
6.208000E-5,0.004770
6.209000E-5,0.004484
6.210000E-5,0.004080
6.211000E-5,0.003592
6.212000E-5,0.003031
6.213000E-5,0.002315
6.214000E-5,0.001472
6.215000E-5,0.000558
6.216000E-5,-0.000466
6.217000E-5,-0.001601
6.218000E-5,-0.002877
6.219000E-5,-0.004208
6.220000E-5,-0.005619
6.221000E-5,-0.007147
6.222000E-5,-0.008722
6.223000E-5,-0.010354
6.224000E-5,-0.011973
6.225000E-5,-0.013614
6.226000E-5,-0.015301
6.227000E-5,-0.016960
6.228000E-5,-0.018587
6.229000E-5,-0.020162
6.230000E-5,-0.021746
6.231000E-5,-0.023317
6.232000E-5,-0.024801
6.233000E-5,-0.026269
6.234000E-5,-0.027750
6.235000E-5,-0.029233
6.236000E-5,-0.030715
6.237000E-5,-0.032202
6.238000E-5,-0.033684
6.239000E-5,-0.035166
6.240000E-5,-0.036689
6.241000E-5,-0.038226
6.242000E-5,-0.039684
6.243000E-5,-0.041125
6.244000E-5,-0.042649
6.245000E-5,-0.044130
6.246000E-5,-0.045515
6.247000E-5,-0.046907
6.248000E-5,-0.048254
6.249000E-5,-0.049568
6.250000E-5,-0.050929
6.251000E-5,-0.052281
6.252000E-5,-0.053645
6.253000E-5,-0.055011
6.254000E-5,-0.056283
6.255000E-5,-0.057579
6.256000E-5,-0.058901
6.257000E-5,-0.060176
6.258000E-5,-0.061482
6.259000E-5,-0.062794
6.260000E-5,-0.064088
6.261000E-5,-0.065335
6.262000E-5,-0.066570
6.263000E-5,-0.067813
6.264000E-5,-0.068956
6.265000E-5,-0.070077
6.266000E-5,-0.071219
6.267000E-5,-0.072309
6.268000E-5,-0.073389
6.269000E-5,-0.074379
6.270000E-5,-0.075261
6.271000E-5,-0.076150
6.272000E-5,-0.077030
6.273000E-5,-0.077859
6.274000E-5,-0.078643
6.275000E-5,-0.079369
6.276000E-5,-0.079974
6.277000E-5,-0.080454
6.278000E-5,-0.080891
6.279000E-5,-0.081273
6.280000E-5,-0.081593
6.281000E-5,-0.081838
6.282000E-5,-0.082012
6.283000E-5,-0.082110
6.284000E-5,-0.082133
6.285000E-5,-0.082114
6.286000E-5,-0.082019
6.287000E-5,-0.081821
6.288000E-5,-0.081540
6.289000E-5,-0.081171
6.290000E-5,-0.080775
6.291000E-5,-0.080347
6.292000E-5,-0.079818
6.293000E-5,-0.079192
6.294000E-5,-0.078481
6.295000E-5,-0.077724
6.296000E-5,-0.076953
6.297000E-5,-0.076063
6.298000E-5,-0.075095
6.299000E-5,-0.074153
6.300000E-5,-0.073089
6.301000E-5,-0.071901
6.302000E-5,-0.070681
6.303000E-5,-0.069425
6.304000E-5,-0.068129
6.305000E-5,-0.066798
6.306000E-5,-0.065412
6.307000E-5,-0.063982
6.308000E-5,-0.062500
6.309000E-5,-0.060990
6.310000E-5,-0.059477
6.311000E-5,-0.057942
6.312000E-5,-0.056359
6.313000E-5,-0.054734
6.314000E-5,-0.053098
6.315000E-5,-0.051440
6.316000E-5,-0.049757
6.317000E-5,-0.048045
6.318000E-5,-0.046336
6.319000E-5,-0.044640
6.320000E-5,-0.042937
6.321000E-5,-0.041238
6.322000E-5,-0.039552
6.323000E-5,-0.037875
6.324000E-5,-0.036193
6.325000E-5,-0.034511
6.326000E-5,-0.032837
6.327000E-5,-0.031196
6.328000E-5,-0.029568
6.329000E-5,-0.027953
6.330000E-5,-0.026362
6.331000E-5,-0.024775
6.332000E-5,-0.023223
6.333000E-5,-0.021713
6.334000E-5,-0.020219
6.335000E-5,-0.018756
6.336000E-5,-0.017339
6.337000E-5,-0.015954
6.338000E-5,-0.014625
6.339000E-5,-0.013315
6.340000E-5,-0.012076
6.341000E-5,-0.010907
6.342000E-5,-0.009793
6.343000E-5,-0.008754
6.344000E-5,-0.007734
6.345000E-5,-0.006732
6.346000E-5,-0.005778
6.347000E-5,-0.004950
6.348000E-5,-0.004224
6.349000E-5,-0.003525
6.350000E-5,-0.002825
6.351000E-5,-0.002147
6.352000E-5,-0.001576
6.353000E-5,-0.001181
6.354000E-5,-0.000891
6.355000E-5,-0.000554
6.356000E-5,-0.000328
6.357000E-5,-0.000238
6.358000E-5,-8.722116E-5
6.359000E-5,5.827354E-5
6.360000E-5,6.988179E-5
6.361000E-5,-4.655816E-6
6.362000E-5,-8.356187E-5
6.363000E-5,-0.000181
6.364000E-5,-0.000303
6.365000E-5,-0.000455
6.366000E-5,-0.000652
6.367000E-5,-0.000868
6.368000E-5,-0.001089
6.369000E-5,-0.001308
6.370000E-5,-0.001538
6.371000E-5,-0.001728
6.372000E-5,-0.001881
6.373000E-5,-0.002067
6.374000E-5,-0.002286
6.375000E-5,-0.002508
6.376000E-5,-0.002725
6.377000E-5,-0.002915
6.378000E-5,-0.003051
6.379000E-5,-0.003192
6.380000E-5,-0.003286
6.381000E-5,-0.003372
6.382000E-5,-0.003414
6.383000E-5,-0.003364
6.384000E-5,-0.003288
6.385000E-5,-0.003197
6.386000E-5,-0.003018
6.387000E-5,-0.002712
6.388000E-5,-0.002335
6.389000E-5,-0.001969
6.390000E-5,-0.001549
6.391000E-5,-0.001020
6.392000E-5,-0.000424
6.393000E-5,0.000257
6.394000E-5,0.001042
6.395000E-5,0.001867
6.396000E-5,0.002758
6.397000E-5,0.003719
6.398000E-5,0.004696
6.399000E-5,0.005737
6.400000E-5,0.006801
6.401000E-5,0.007894
6.402000E-5,0.008985
6.403000E-5,0.010042
6.404000E-5,0.011102
6.405000E-5,0.012241
6.406000E-5,0.013483
6.407000E-5,0.014843
6.408000E-5,0.016373
6.409000E-5,0.018049
6.410000E-5,0.019835
6.411000E-5,0.021809
6.412000E-5,0.023926
6.413000E-5,0.026206
6.414000E-5,0.028632
6.415000E-5,0.031131
6.416000E-5,0.033839
6.417000E-5,0.036672
6.418000E-5,0.039607
6.419000E-5,0.042722
6.420000E-5,0.045991
6.421000E-5,0.049325
6.422000E-5,0.052558
6.423000E-5,0.055697
6.424000E-5,0.058834
6.425000E-5,0.062013
6.426000E-5,0.065335
6.427000E-5,0.068733
6.428000E-5,0.072040
6.429000E-5,0.075235
6.430000E-5,0.078310
6.431000E-5,0.081270
6.432000E-5,0.084188
6.433000E-5,0.087181
6.434000E-5,0.090349
6.435000E-5,0.093652
6.436000E-5,0.097038
6.437000E-5,0.100540
6.438000E-5,0.104163
6.439000E-5,0.107847
6.440000E-5,0.111478
6.441000E-5,0.115065
6.442000E-5,0.118670
6.443000E-5,0.122292
6.444000E-5,0.126012
6.445000E-5,0.129906
6.446000E-5,0.133917
6.447000E-5,0.137865
6.448000E-5,0.141604
6.449000E-5,0.145070
6.450000E-5,0.148261
6.451000E-5,0.151283
6.452000E-5,0.154293
6.453000E-5,0.157489
6.454000E-5,0.160814
6.455000E-5,0.164223
6.456000E-5,0.167844
6.457000E-5,0.171628
6.458000E-5,0.175447
6.459000E-5,0.179196
6.460000E-5,0.182863
6.461000E-5,0.186347
6.462000E-5,0.189563
6.463000E-5,0.192566
6.464000E-5,0.195459
6.465000E-5,0.198270
6.466000E-5,0.200891
6.467000E-5,0.203303
6.468000E-5,0.205453
6.469000E-5,0.207277
6.470000E-5,0.208805
6.471000E-5,0.210117
6.472000E-5,0.211269
6.473000E-5,0.212229
6.474000E-5,0.213124
6.475000E-5,0.213912
6.476000E-5,0.214533
6.477000E-5,0.215040
6.478000E-5,0.215381
6.479000E-5,0.215654
6.480000E-5,0.215803
6.481000E-5,0.215755
6.482000E-5,0.215517
6.483000E-5,0.215026
6.484000E-5,0.214319
6.485000E-5,0.213491
6.486000E-5,0.212457
6.487000E-5,0.211159
6.488000E-5,0.209711
6.489000E-5,0.208141
6.490000E-5,0.206392
6.491000E-5,0.204552
6.492000E-5,0.202571
6.493000E-5,0.200348
6.494000E-5,0.197955
6.495000E-5,0.195300
6.496000E-5,0.192462
6.497000E-5,0.189510
6.498000E-5,0.186401
6.499000E-5,0.183105
6.500000E-5,0.179604
6.501000E-5,0.175954
6.502000E-5,0.172152
6.503000E-5,0.168181
6.504000E-5,0.164018
6.505000E-5,0.159641
6.506000E-5,0.155106
6.507000E-5,0.150428
6.508000E-5,0.145519
6.509000E-5,0.140452
6.510000E-5,0.135283
6.511000E-5,0.129889
6.512000E-5,0.124286
6.513000E-5,0.118577
6.514000E-5,0.112803
6.515000E-5,0.106974
6.516000E-5,0.101089
6.517000E-5,0.095129
6.518000E-5,0.089056
6.519000E-5,0.082835
6.520000E-5,0.076474
6.521000E-5,0.070029
6.522000E-5,0.063479
6.523000E-5,0.056844
6.524000E-5,0.050132
6.525000E-5,0.043319
6.526000E-5,0.036463
6.527000E-5,0.029490
6.528000E-5,0.022480
6.529000E-5,0.015609
6.530000E-5,0.008804
6.531000E-5,0.002023
6.532000E-5,-0.004796
6.533000E-5,-0.011718
6.534000E-5,-0.018745
6.535000E-5,-0.025896
6.536000E-5,-0.033042
6.537000E-5,-0.040158
6.538000E-5,-0.047276
6.539000E-5,-0.054478
6.540000E-5,-0.061901
6.541000E-5,-0.069359
6.542000E-5,-0.076805
6.543000E-5,-0.084312
6.544000E-5,-0.091868
6.545000E-5,-0.099380
6.546000E-5,-0.106781
6.547000E-5,-0.114049
6.548000E-5,-0.121150
6.549000E-5,-0.128114
6.550000E-5,-0.134972
6.551000E-5,-0.141823
6.552000E-5,-0.148678
6.553000E-5,-0.155521
6.554000E-5,-0.162247
6.555000E-5,-0.168787
6.556000E-5,-0.175165
6.557000E-5,-0.181372
6.558000E-5,-0.187424
6.559000E-5,-0.193319
6.560000E-5,-0.199095
6.561000E-5,-0.204748
6.562000E-5,-0.210239
6.563000E-5,-0.215486
6.564000E-5,-0.220405
6.565000E-5,-0.225085
6.566000E-5,-0.229586
6.567000E-5,-0.233921
6.568000E-5,-0.238033
6.569000E-5,-0.241866
6.570000E-5,-0.245503
6.571000E-5,-0.248940
6.572000E-5,-0.252220
6.573000E-5,-0.255387
6.574000E-5,-0.258448
6.575000E-5,-0.261365
6.576000E-5,-0.264106
6.577000E-5,-0.266685
6.578000E-5,-0.268976
6.579000E-5,-0.270944
6.580000E-5,-0.272655
6.581000E-5,-0.274108
6.582000E-5,-0.275346
6.583000E-5,-0.276369
6.584000E-5,-0.277125
6.585000E-5,-0.277602
6.586000E-5,-0.277810
6.587000E-5,-0.277822
6.588000E-5,-0.277638
6.589000E-5,-0.277245
6.590000E-5,-0.276722
6.591000E-5,-0.276074
6.592000E-5,-0.275209
6.593000E-5,-0.274141
6.594000E-5,-0.272852
6.595000E-5,-0.271352
6.596000E-5,-0.269637
6.597000E-5,-0.267582
6.598000E-5,-0.265287
6.599000E-5,-0.262802
6.600000E-5,-0.260066
6.601000E-5,-0.257100
6.602000E-5,-0.253944
6.603000E-5,-0.250619
6.604000E-5,-0.247121
6.605000E-5,-0.243434
6.606000E-5,-0.239528
6.607000E-5,-0.235458
6.608000E-5,-0.231225
6.609000E-5,-0.226804
6.610000E-5,-0.222231
6.611000E-5,-0.217532
6.612000E-5,-0.212670
6.613000E-5,-0.207645
6.614000E-5,-0.202505
6.615000E-5,-0.197177
6.616000E-5,-0.191697
6.617000E-5,-0.186117
6.618000E-5,-0.180425
6.619000E-5,-0.174658
6.620000E-5,-0.168669
6.621000E-5,-0.162505
6.622000E-5,-0.156282
6.623000E-5,-0.149989
6.624000E-5,-0.143668
6.625000E-5,-0.137281
6.626000E-5,-0.130795
6.627000E-5,-0.124254
6.628000E-5,-0.117684
6.629000E-5,-0.111096
6.630000E-5,-0.104523
6.631000E-5,-0.097931
6.632000E-5,-0.091296
6.633000E-5,-0.084636
6.634000E-5,-0.077935
6.635000E-5,-0.071254
6.636000E-5,-0.064546
6.637000E-5,-0.057693
6.638000E-5,-0.050819
6.639000E-5,-0.043999
6.640000E-5,-0.037135
6.641000E-5,-0.030297
6.642000E-5,-0.023479
6.643000E-5,-0.016606
6.644000E-5,-0.009797
6.645000E-5,-0.002976
6.646000E-5,0.003826
6.647000E-5,0.010513
6.648000E-5,0.017115
6.649000E-5,0.023552
6.650000E-5,0.029837
6.651000E-5,0.035978
6.652000E-5,0.041971
6.653000E-5,0.047799
6.654000E-5,0.053502
6.655000E-5,0.059252
6.656000E-5,0.064984
6.657000E-5,0.070574
6.658000E-5,0.076147
6.659000E-5,0.081646
6.660000E-5,0.086950
6.661000E-5,0.092187
6.662000E-5,0.097352
6.663000E-5,0.102395
6.664000E-5,0.107343
6.665000E-5,0.112156
6.666000E-5,0.116802
6.667000E-5,0.121259
6.668000E-5,0.125542
6.669000E-5,0.129714
6.670000E-5,0.133744
6.671000E-5,0.137590
6.672000E-5,0.141187
6.673000E-5,0.144510
6.674000E-5,0.147629
6.675000E-5,0.150547
6.676000E-5,0.153252
6.677000E-5,0.155733
6.678000E-5,0.158024
6.679000E-5,0.160128
6.680000E-5,0.162091
6.681000E-5,0.163937
6.682000E-5,0.165589
6.683000E-5,0.167123
6.684000E-5,0.168477
6.685000E-5,0.169549
6.686000E-5,0.170424
6.687000E-5,0.171132
6.688000E-5,0.171591
6.689000E-5,0.171796
6.690000E-5,0.171819
6.691000E-5,0.171654
6.692000E-5,0.171286
6.693000E-5,0.170716
6.694000E-5,0.169938
6.695000E-5,0.169055
6.696000E-5,0.168055
6.697000E-5,0.166840
6.698000E-5,0.165475
6.699000E-5,0.163997
6.700000E-5,0.162319
6.701000E-5,0.160517
6.702000E-5,0.158696
6.703000E-5,0.156696
6.704000E-5,0.154514
6.705000E-5,0.152201
6.706000E-5,0.149759
6.707000E-5,0.147212
6.708000E-5,0.144530
6.709000E-5,0.141802
6.710000E-5,0.138998
6.711000E-5,0.136097
6.712000E-5,0.133113
6.713000E-5,0.130020
6.714000E-5,0.126832
6.715000E-5,0.123515
6.716000E-5,0.120102
6.717000E-5,0.116628
6.718000E-5,0.113003
6.719000E-5,0.109279
6.720000E-5,0.105567
6.721000E-5,0.101821
6.722000E-5,0.098070
6.723000E-5,0.094278
6.724000E-5,0.090351
6.725000E-5,0.086380
6.726000E-5,0.082465
6.727000E-5,0.078545
6.728000E-5,0.074556
6.729000E-5,0.070513
6.730000E-5,0.066504
6.731000E-5,0.062546
6.732000E-5,0.058539
6.733000E-5,0.054496
6.734000E-5,0.050498
6.735000E-5,0.046554
6.736000E-5,0.042699
6.737000E-5,0.038834
6.738000E-5,0.034924
6.739000E-5,0.031083
6.740000E-5,0.027336
6.741000E-5,0.023593
6.742000E-5,0.019851
6.743000E-5,0.016211
6.744000E-5,0.012687
6.745000E-5,0.009245
6.746000E-5,0.005773
6.747000E-5,0.002314
6.748000E-5,-0.001063
6.749000E-5,-0.004335
6.750000E-5,-0.007479
6.751000E-5,-0.010581
6.752000E-5,-0.013638
6.753000E-5,-0.016574
6.754000E-5,-0.019390
6.755000E-5,-0.022094
6.756000E-5,-0.024734
6.757000E-5,-0.027332
6.758000E-5,-0.029790
6.759000E-5,-0.032105
6.760000E-5,-0.034327
6.761000E-5,-0.036484
6.762000E-5,-0.038534
6.763000E-5,-0.040420
6.764000E-5,-0.042173
6.765000E-5,-0.043789
6.766000E-5,-0.045335
6.767000E-5,-0.046788
6.768000E-5,-0.048058
6.769000E-5,-0.049229
6.770000E-5,-0.050279
6.771000E-5,-0.051220
6.772000E-5,-0.052068
6.773000E-5,-0.052783
6.774000E-5,-0.053403
6.775000E-5,-0.053939
6.776000E-5,-0.054386
6.777000E-5,-0.054733
6.778000E-5,-0.054960
6.779000E-5,-0.055072
6.780000E-5,-0.055073
6.781000E-5,-0.054989
6.782000E-5,-0.054837
6.783000E-5,-0.054592
6.784000E-5,-0.054249
6.785000E-5,-0.053792
6.786000E-5,-0.053269
6.787000E-5,-0.052711
6.788000E-5,-0.052050
6.789000E-5,-0.051289
6.790000E-5,-0.050448
6.791000E-5,-0.049532
6.792000E-5,-0.048566
6.793000E-5,-0.047396
6.794000E-5,-0.046025
6.795000E-5,-0.044547
6.796000E-5,-0.042934
6.797000E-5,-0.041207
6.798000E-5,-0.039231
6.799000E-5,-0.037053
6.800000E-5,-0.034733
6.801000E-5,-0.032297
6.802000E-5,-0.029736
6.803000E-5,-0.026931
6.804000E-5,-0.024003
6.805000E-5,-0.021032
6.806000E-5,-0.018074
6.807000E-5,-0.015054
6.808000E-5,-0.011874
6.809000E-5,-0.008707
6.810000E-5,-0.005637
6.811000E-5,-0.002593
6.812000E-5,0.000428
6.813000E-5,0.003429
6.814000E-5,0.006414
6.815000E-5,0.009456
6.816000E-5,0.012614
6.817000E-5,0.015821
6.818000E-5,0.019113
6.819000E-5,0.022475
6.820000E-5,0.025906
6.821000E-5,0.029419
6.822000E-5,0.032985
6.823000E-5,0.036597
6.824000E-5,0.040196
6.825000E-5,0.043821
6.826000E-5,0.047415
6.827000E-5,0.050888
6.828000E-5,0.054297
6.829000E-5,0.057588
6.830000E-5,0.060703
6.831000E-5,0.063723
6.832000E-5,0.066640
6.833000E-5,0.069446
6.834000E-5,0.072197
6.835000E-5,0.074962
6.836000E-5,0.077816
6.837000E-5,0.080779
6.838000E-5,0.083792
6.839000E-5,0.086743
6.840000E-5,0.089656
6.841000E-5,0.092651
6.842000E-5,0.095606
6.843000E-5,0.098538
6.844000E-5,0.101502
6.845000E-5,0.104441
6.846000E-5,0.107374
6.847000E-5,0.110224
6.848000E-5,0.113012
6.849000E-5,0.115714
6.850000E-5,0.118259
6.851000E-5,0.120654
6.852000E-5,0.122909
6.853000E-5,0.125026
6.854000E-5,0.126977
6.855000E-5,0.128752
6.856000E-5,0.130377
6.857000E-5,0.131817
6.858000E-5,0.133093
6.859000E-5,0.134300
6.860000E-5,0.135412
6.861000E-5,0.136401
6.862000E-5,0.137292
6.863000E-5,0.138009
6.864000E-5,0.138528
6.865000E-5,0.138884
6.866000E-5,0.139090
6.867000E-5,0.139109
6.868000E-5,0.138919
6.869000E-5,0.138570
6.870000E-5,0.138084
6.871000E-5,0.137409
6.872000E-5,0.136553
6.873000E-5,0.135559
6.874000E-5,0.134436
6.875000E-5,0.133209
6.876000E-5,0.131893
6.877000E-5,0.130493
6.878000E-5,0.128992
6.879000E-5,0.127339
6.880000E-5,0.125601
6.881000E-5,0.123810
6.882000E-5,0.121915
6.883000E-5,0.119952
6.884000E-5,0.117946
6.885000E-5,0.115910
6.886000E-5,0.113749
6.887000E-5,0.111548
6.888000E-5,0.109342
6.889000E-5,0.106997
6.890000E-5,0.104567
6.891000E-5,0.102107
6.892000E-5,0.099580
6.893000E-5,0.097021
6.894000E-5,0.094449
6.895000E-5,0.091804
6.896000E-5,0.089150
6.897000E-5,0.086407
6.898000E-5,0.083617
6.899000E-5,0.080857
6.900000E-5,0.078018
6.901000E-5,0.075091
6.902000E-5,0.072070
6.903000E-5,0.069064
6.904000E-5,0.066119
6.905000E-5,0.063102
6.906000E-5,0.060049
6.907000E-5,0.057002
6.908000E-5,0.053979
6.909000E-5,0.050934
6.910000E-5,0.047845
6.911000E-5,0.044760
6.912000E-5,0.041713
6.913000E-5,0.038692
6.914000E-5,0.035659
6.915000E-5,0.032626
6.916000E-5,0.029584
6.917000E-5,0.026558
6.918000E-5,0.023574
6.919000E-5,0.020636
6.920000E-5,0.017746
6.921000E-5,0.014871
6.922000E-5,0.012023
6.923000E-5,0.009261
6.924000E-5,0.006573
6.925000E-5,0.003888
6.926000E-5,0.001240
6.927000E-5,-0.001327
6.928000E-5,-0.003832
6.929000E-5,-0.006317
6.930000E-5,-0.008785
6.931000E-5,-0.011156
6.932000E-5,-0.013458
6.933000E-5,-0.015718
6.934000E-5,-0.017919
6.935000E-5,-0.020055
6.936000E-5,-0.022116
6.937000E-5,-0.024094
6.938000E-5,-0.025991
6.939000E-5,-0.027842
6.940000E-5,-0.029652
6.941000E-5,-0.031435
6.942000E-5,-0.033153
6.943000E-5,-0.034778
6.944000E-5,-0.036345
6.945000E-5,-0.037913
6.946000E-5,-0.039506
6.947000E-5,-0.041008
6.948000E-5,-0.042476
6.949000E-5,-0.044002
6.950000E-5,-0.045489
6.951000E-5,-0.046915
6.952000E-5,-0.048344
6.953000E-5,-0.049688
6.954000E-5,-0.050884
6.955000E-5,-0.052035
6.956000E-5,-0.053163
6.957000E-5,-0.054223
6.958000E-5,-0.055275
6.959000E-5,-0.056423
6.960000E-5,-0.057455
6.961000E-5,-0.058367
6.962000E-5,-0.059291
6.963000E-5,-0.060196
6.964000E-5,-0.061066
6.965000E-5,-0.061881
6.966000E-5,-0.062649
6.967000E-5,-0.063405
6.968000E-5,-0.064163
6.969000E-5,-0.064893
6.970000E-5,-0.065596
6.971000E-5,-0.066257
6.972000E-5,-0.066869
6.973000E-5,-0.067469
6.974000E-5,-0.068049
6.975000E-5,-0.068574
6.976000E-5,-0.069158
6.977000E-5,-0.069707
6.978000E-5,-0.070212
6.979000E-5,-0.070776
6.980000E-5,-0.071216
6.981000E-5,-0.071579
6.982000E-5,-0.071982
6.983000E-5,-0.072323
6.984000E-5,-0.072568
6.985000E-5,-0.072862
6.986000E-5,-0.073161
6.987000E-5,-0.073343
6.988000E-5,-0.073490
6.989000E-5,-0.073631
6.990000E-5,-0.073753
6.991000E-5,-0.073814
6.992000E-5,-0.073757
6.993000E-5,-0.073653
6.994000E-5,-0.073574
6.995000E-5,-0.073448
6.996000E-5,-0.073299
6.997000E-5,-0.073112
6.998000E-5,-0.072848
6.999000E-5,-0.072574
7.000000E-5,-0.072268
7.001000E-5,-0.071898
7.002000E-5,-0.071472
7.003000E-5,-0.071002
7.004000E-5,-0.070467
7.005000E-5,-0.069879
7.006000E-5,-0.069247
7.007000E-5,-0.068545
7.008000E-5,-0.067770
7.009000E-5,-0.066926
7.010000E-5,-0.066023
7.011000E-5,-0.065088
7.012000E-5,-0.064122
7.013000E-5,-0.063127
7.014000E-5,-0.062072
7.015000E-5,-0.060974
7.016000E-5,-0.059872
7.017000E-5,-0.058739
7.018000E-5,-0.057636
7.019000E-5,-0.056677
7.020000E-5,-0.055744
7.021000E-5,-0.054780
7.022000E-5,-0.053825
7.023000E-5,-0.052892
7.024000E-5,-0.051998
7.025000E-5,-0.051142
7.026000E-5,-0.050352
7.027000E-5,-0.049663
7.028000E-5,-0.049045
7.029000E-5,-0.048473
7.030000E-5,-0.047954
7.031000E-5,-0.047501
7.032000E-5,-0.047077
7.033000E-5,-0.046638
7.034000E-5,-0.046300
7.035000E-5,-0.045989
7.036000E-5,-0.045661
7.037000E-5,-0.045438
7.038000E-5,-0.045253
7.039000E-5,-0.045040
7.040000E-5,-0.044908
7.041000E-5,-0.044775
7.042000E-5,-0.044593
7.043000E-5,-0.044447
7.044000E-5,-0.044339
7.045000E-5,-0.044222
7.046000E-5,-0.044070
7.047000E-5,-0.043905
7.048000E-5,-0.043678
7.049000E-5,-0.043442
7.050000E-5,-0.043211
7.051000E-5,-0.042994
7.052000E-5,-0.042853
7.053000E-5,-0.042758
7.054000E-5,-0.042686
7.055000E-5,-0.042622
7.056000E-5,-0.042608
7.057000E-5,-0.042650
7.058000E-5,-0.042681
7.059000E-5,-0.042738
7.060000E-5,-0.042798
7.061000E-5,-0.042825
7.062000E-5,-0.042899
7.063000E-5,-0.043017
7.064000E-5,-0.043129
7.065000E-5,-0.043184
7.066000E-5,-0.043270
7.067000E-5,-0.043443
7.068000E-5,-0.043635
7.069000E-5,-0.043866
7.070000E-5,-0.044134
7.071000E-5,-0.044432
7.072000E-5,-0.044842
7.073000E-5,-0.045239
7.074000E-5,-0.045615
7.075000E-5,-0.046006
7.076000E-5,-0.046298
7.077000E-5,-0.046621
7.078000E-5,-0.046952
7.079000E-5,-0.047234
7.080000E-5,-0.047476
7.081000E-5,-0.047656
7.082000E-5,-0.047848
7.083000E-5,-0.048010
7.084000E-5,-0.048154
7.085000E-5,-0.048276
7.086000E-5,-0.048333
7.087000E-5,-0.048385
7.088000E-5,-0.048416
7.089000E-5,-0.048371
7.090000E-5,-0.048275
7.091000E-5,-0.048128
7.092000E-5,-0.047948
7.093000E-5,-0.047715
7.094000E-5,-0.047423
7.095000E-5,-0.047097
7.096000E-5,-0.046753
7.097000E-5,-0.046428
7.098000E-5,-0.046079
7.099000E-5,-0.045706
7.100000E-5,-0.045313
7.101000E-5,-0.044913
7.102000E-5,-0.044495
7.103000E-5,-0.044037
7.104000E-5,-0.043628
7.105000E-5,-0.043195
7.106000E-5,-0.042668
7.107000E-5,-0.042187
7.108000E-5,-0.041680
7.109000E-5,-0.041085
7.110000E-5,-0.040476
7.111000E-5,-0.039856
7.112000E-5,-0.039254
7.113000E-5,-0.038670
7.114000E-5,-0.038027
7.115000E-5,-0.037298
7.116000E-5,-0.036561
7.117000E-5,-0.035865
7.118000E-5,-0.035203
7.119000E-5,-0.034483
7.120000E-5,-0.033743
7.121000E-5,-0.032986
7.122000E-5,-0.032170
7.123000E-5,-0.031291
7.124000E-5,-0.030339
7.125000E-5,-0.029418
7.126000E-5,-0.028514
7.127000E-5,-0.027521
7.128000E-5,-0.026544
7.129000E-5,-0.025647
7.130000E-5,-0.024715
7.131000E-5,-0.023779
7.132000E-5,-0.022834
7.133000E-5,-0.021774
7.134000E-5,-0.020691
7.135000E-5,-0.019624
7.136000E-5,-0.018515
7.137000E-5,-0.017426
7.138000E-5,-0.016329
7.139000E-5,-0.015204
7.140000E-5,-0.014027
7.141000E-5,-0.012813
7.142000E-5,-0.011675
7.143000E-5,-0.010518
7.144000E-5,-0.009309
7.145000E-5,-0.008116
7.146000E-5,-0.006962
7.147000E-5,-0.005811
7.148000E-5,-0.004637
7.149000E-5,-0.003485
7.150000E-5,-0.002327
7.151000E-5,-0.001208
7.152000E-5,-0.000143
7.153000E-5,0.000918
7.154000E-5,0.001960
7.155000E-5,0.002967
7.156000E-5,0.003933
7.157000E-5,0.004850
7.158000E-5,0.005746
7.159000E-5,0.006622
7.160000E-5,0.007463
7.161000E-5,0.008275
7.162000E-5,0.009051
7.163000E-5,0.009842
7.164000E-5,0.010659
7.165000E-5,0.011444
7.166000E-5,0.012204
7.167000E-5,0.013002
7.168000E-5,0.013843
7.169000E-5,0.014703
7.170000E-5,0.015558
7.171000E-5,0.016344
7.172000E-5,0.017196
7.173000E-5,0.018175
7.174000E-5,0.019140
7.175000E-5,0.020097
7.176000E-5,0.021037
7.177000E-5,0.022016
7.178000E-5,0.023097
7.179000E-5,0.024137
7.180000E-5,0.025088
7.181000E-5,0.026028
7.182000E-5,0.027022
7.183000E-5,0.028036
7.184000E-5,0.028963
7.185000E-5,0.029818
7.186000E-5,0.030623
7.187000E-5,0.031501
7.188000E-5,0.032390
7.189000E-5,0.033189
7.190000E-5,0.033950
7.191000E-5,0.034680
7.192000E-5,0.035422
7.193000E-5,0.036103
7.194000E-5,0.036746
7.195000E-5,0.037351
7.196000E-5,0.037818
7.197000E-5,0.038246
7.198000E-5,0.038669
7.199000E-5,0.038960
7.200000E-5,0.039172
7.201000E-5,0.039373
7.202000E-5,0.039477
7.203000E-5,0.039502
7.204000E-5,0.039529
7.205000E-5,0.039536
7.206000E-5,0.039482
7.207000E-5,0.039347
7.208000E-5,0.039106
7.209000E-5,0.038750
7.210000E-5,0.038310
7.211000E-5,0.037821
7.212000E-5,0.037348
7.213000E-5,0.036799
7.214000E-5,0.036178
7.215000E-5,0.035530
7.216000E-5,0.034802
7.217000E-5,0.033954
7.218000E-5,0.033006
7.219000E-5,0.032028
7.220000E-5,0.031001
7.221000E-5,0.029849
7.222000E-5,0.028537
7.223000E-5,0.027173
7.224000E-5,0.025880
7.225000E-5,0.024632
7.226000E-5,0.023270
7.227000E-5,0.021779
7.228000E-5,0.020282
7.229000E-5,0.018801
7.230000E-5,0.017239
7.231000E-5,0.015558
7.232000E-5,0.013801
7.233000E-5,0.012024
7.234000E-5,0.010258
7.235000E-5,0.008435
7.236000E-5,0.006559
7.237000E-5,0.004749
7.238000E-5,0.002949
7.239000E-5,0.001139
7.240000E-5,-0.000705
7.241000E-5,-0.002593
7.242000E-5,-0.004401
7.243000E-5,-0.006157
7.244000E-5,-0.007923
7.245000E-5,-0.009698
7.246000E-5,-0.011420
7.247000E-5,-0.013068
7.248000E-5,-0.014706
7.249000E-5,-0.016347
7.250000E-5,-0.017944
7.251000E-5,-0.019532
7.252000E-5,-0.021146
7.253000E-5,-0.022732
7.254000E-5,-0.024294
7.255000E-5,-0.025905
7.256000E-5,-0.027558
7.257000E-5,-0.029171
7.258000E-5,-0.030779
7.259000E-5,-0.032394
7.260000E-5,-0.033978
7.261000E-5,-0.035551
7.262000E-5,-0.037074
7.263000E-5,-0.038533
7.264000E-5,-0.039943
7.265000E-5,-0.041282
7.266000E-5,-0.042514
7.267000E-5,-0.043692
7.268000E-5,-0.044822
7.269000E-5,-0.045906
7.270000E-5,-0.047049
7.271000E-5,-0.048142
7.272000E-5,-0.049183
7.273000E-5,-0.050225
7.274000E-5,-0.051228
7.275000E-5,-0.052214
7.276000E-5,-0.053055
7.277000E-5,-0.053853
7.278000E-5,-0.054681
7.279000E-5,-0.055458
7.280000E-5,-0.056163
7.281000E-5,-0.056805
7.282000E-5,-0.057385
7.283000E-5,-0.057912
7.284000E-5,-0.058387
7.285000E-5,-0.058789
7.286000E-5,-0.059121
7.287000E-5,-0.059448
7.288000E-5,-0.059700
7.289000E-5,-0.059822
7.290000E-5,-0.059882
7.291000E-5,-0.059797
7.292000E-5,-0.059659
7.293000E-5,-0.059547
7.294000E-5,-0.059397
7.295000E-5,-0.059174
7.296000E-5,-0.058861
7.297000E-5,-0.058433
7.298000E-5,-0.057880
7.299000E-5,-0.057322
7.300000E-5,-0.056710
7.301000E-5,-0.055947
7.302000E-5,-0.055112
7.303000E-5,-0.054207
7.304000E-5,-0.053238
7.305000E-5,-0.052115
7.306000E-5,-0.050932
7.307000E-5,-0.049756
7.308000E-5,-0.048490
7.309000E-5,-0.047138
7.310000E-5,-0.045742
7.311000E-5,-0.044291
7.312000E-5,-0.042760
7.313000E-5,-0.041106
7.314000E-5,-0.039357
7.315000E-5,-0.037604
7.316000E-5,-0.035751
7.317000E-5,-0.033804
7.318000E-5,-0.031791
7.319000E-5,-0.029732
7.320000E-5,-0.027703
7.321000E-5,-0.025642
7.322000E-5,-0.023511
7.323000E-5,-0.021365
7.324000E-5,-0.019194
7.325000E-5,-0.016973
7.326000E-5,-0.014759
7.327000E-5,-0.012539
7.328000E-5,-0.010361
7.329000E-5,-0.008233
7.330000E-5,-0.006078
7.331000E-5,-0.003908
7.332000E-5,-0.001762
7.333000E-5,0.000407
7.334000E-5,0.002566
7.335000E-5,0.004699
7.336000E-5,0.006924
7.337000E-5,0.009127
7.338000E-5,0.011298
7.339000E-5,0.013536
7.340000E-5,0.015806
7.341000E-5,0.018067
7.342000E-5,0.020287
7.343000E-5,0.022451
7.344000E-5,0.024579
7.345000E-5,0.026611
7.346000E-5,0.028527
7.347000E-5,0.030385
7.348000E-5,0.032148
7.349000E-5,0.033818
7.350000E-5,0.035387
7.351000E-5,0.036851
7.352000E-5,0.038225
7.353000E-5,0.039489
7.354000E-5,0.040666
7.355000E-5,0.041773
7.356000E-5,0.042816
7.357000E-5,0.043819
7.358000E-5,0.044774
7.359000E-5,0.045638
7.360000E-5,0.046428
7.361000E-5,0.047174
7.362000E-5,0.047877
7.363000E-5,0.048572
7.364000E-5,0.049215
7.365000E-5,0.049766
7.366000E-5,0.050263
7.367000E-5,0.050727
7.368000E-5,0.051202
7.369000E-5,0.051695
7.370000E-5,0.052117
7.371000E-5,0.052444
7.372000E-5,0.052726
7.373000E-5,0.053074
7.374000E-5,0.053398
7.375000E-5,0.053527
7.376000E-5,0.053547
7.377000E-5,0.053548
7.378000E-5,0.053544
7.379000E-5,0.053407
7.380000E-5,0.053178
7.381000E-5,0.052933
7.382000E-5,0.052543
7.383000E-5,0.052136
7.384000E-5,0.051713
7.385000E-5,0.051197
7.386000E-5,0.050614
7.387000E-5,0.049917
7.388000E-5,0.049225
7.389000E-5,0.048504
7.390000E-5,0.047685
7.391000E-5,0.046836
7.392000E-5,0.045925
7.393000E-5,0.044990
7.394000E-5,0.043942
7.395000E-5,0.042793
7.396000E-5,0.041614
7.397000E-5,0.040392
7.398000E-5,0.039124
7.399000E-5,0.037728
7.400000E-5,0.036340
7.401000E-5,0.034989
7.402000E-5,0.033585
7.403000E-5,0.032109
7.404000E-5,0.030523
7.405000E-5,0.028949
7.406000E-5,0.027410
7.407000E-5,0.025836
7.408000E-5,0.024236
7.409000E-5,0.022559
7.410000E-5,0.020866
7.411000E-5,0.019217
7.412000E-5,0.017543
7.413000E-5,0.015825
7.414000E-5,0.014110
7.415000E-5,0.012422
7.416000E-5,0.010764
7.417000E-5,0.009129
7.418000E-5,0.007468
7.419000E-5,0.005851
7.420000E-5,0.004306
7.421000E-5,0.002782
7.422000E-5,0.001275
7.423000E-5,-0.000249
7.424000E-5,-0.001752
7.425000E-5,-0.003197
7.426000E-5,-0.004555
7.427000E-5,-0.005899
7.428000E-5,-0.007262
7.429000E-5,-0.008571
7.430000E-5,-0.009796
7.431000E-5,-0.010982
7.432000E-5,-0.012215
7.433000E-5,-0.013383
7.434000E-5,-0.014458
7.435000E-5,-0.015521
7.436000E-5,-0.016549
7.437000E-5,-0.017528
7.438000E-5,-0.018422
7.439000E-5,-0.019269
7.440000E-5,-0.020168
7.441000E-5,-0.021068
7.442000E-5,-0.021901
7.443000E-5,-0.022613
7.444000E-5,-0.023284
7.445000E-5,-0.023973
7.446000E-5,-0.024535
7.447000E-5,-0.025031
7.448000E-5,-0.025570
7.449000E-5,-0.026043
7.450000E-5,-0.026393
7.451000E-5,-0.026703
7.452000E-5,-0.027011
7.453000E-5,-0.027258
7.454000E-5,-0.027447
7.455000E-5,-0.027572
7.456000E-5,-0.027585
7.457000E-5,-0.027527
7.458000E-5,-0.027506
7.459000E-5,-0.027465
7.460000E-5,-0.027305
7.461000E-5,-0.027101
7.462000E-5,-0.026848
7.463000E-5,-0.026556
7.464000E-5,-0.026198
7.465000E-5,-0.025749
7.466000E-5,-0.025254
7.467000E-5,-0.024746
7.468000E-5,-0.024204
7.469000E-5,-0.023609
7.470000E-5,-0.023000
7.471000E-5,-0.022334
7.472000E-5,-0.021616
7.473000E-5,-0.020869
7.474000E-5,-0.020125
7.475000E-5,-0.019342
7.476000E-5,-0.018486
7.477000E-5,-0.017619
7.478000E-5,-0.016721
7.479000E-5,-0.015830
7.480000E-5,-0.014948
7.481000E-5,-0.014025
7.482000E-5,-0.013044
7.483000E-5,-0.012078
7.484000E-5,-0.011165
7.485000E-5,-0.010162
7.486000E-5,-0.009045
7.487000E-5,-0.007912
7.488000E-5,-0.006837
7.489000E-5,-0.005770
7.490000E-5,-0.004555
7.491000E-5,-0.003257
7.492000E-5,-0.002023
7.493000E-5,-0.000825
7.494000E-5,0.000359
7.495000E-5,0.001656
7.496000E-5,0.003044
7.497000E-5,0.004405
7.498000E-5,0.005802
7.499000E-5,0.007145
7.500000E-5,0.008570
7.501000E-5,0.010136
7.502000E-5,0.011699
7.503000E-5,0.013208
7.504000E-5,0.014698
7.505000E-5,0.016295
7.506000E-5,0.017951
7.507000E-5,0.019596
7.508000E-5,0.021178
7.509000E-5,0.022776
7.510000E-5,0.024415
7.511000E-5,0.025998
7.512000E-5,0.027561
7.513000E-5,0.029080
7.514000E-5,0.030620
7.515000E-5,0.032190
7.516000E-5,0.033696
7.517000E-5,0.035186
7.518000E-5,0.036687
7.519000E-5,0.038191
7.520000E-5,0.039615
7.521000E-5,0.041004
7.522000E-5,0.042399
7.523000E-5,0.043812
7.524000E-5,0.045226
7.525000E-5,0.046532
7.526000E-5,0.047804
7.527000E-5,0.049039
7.528000E-5,0.050182
7.529000E-5,0.051311
7.530000E-5,0.052412
7.531000E-5,0.053420
7.532000E-5,0.054364
7.533000E-5,0.055254
7.534000E-5,0.056089
7.535000E-5,0.056835
7.536000E-5,0.057522
7.537000E-5,0.058151
7.538000E-5,0.058668
7.539000E-5,0.059131
7.540000E-5,0.059500
7.541000E-5,0.059720
7.542000E-5,0.059861
7.543000E-5,0.060003
7.544000E-5,0.060133
7.545000E-5,0.060180
7.546000E-5,0.060124
7.547000E-5,0.060005
7.548000E-5,0.059841
7.549000E-5,0.059583
7.550000E-5,0.059228
7.551000E-5,0.058837
7.552000E-5,0.058362
7.553000E-5,0.057764
7.554000E-5,0.057121
7.555000E-5,0.056455
7.556000E-5,0.055755
7.557000E-5,0.055009
7.558000E-5,0.054170
7.559000E-5,0.053299
7.560000E-5,0.052406
7.561000E-5,0.051444
7.562000E-5,0.050423
7.563000E-5,0.049369
7.564000E-5,0.048327
7.565000E-5,0.047235
7.566000E-5,0.046089
7.567000E-5,0.044935
7.568000E-5,0.043775
7.569000E-5,0.042562
7.570000E-5,0.041285
7.571000E-5,0.039970
7.572000E-5,0.038620
7.573000E-5,0.037239
7.574000E-5,0.035852
7.575000E-5,0.034460
7.576000E-5,0.033037
7.577000E-5,0.031609
7.578000E-5,0.030200
7.579000E-5,0.028759
7.580000E-5,0.027228
7.581000E-5,0.025690
7.582000E-5,0.024147
7.583000E-5,0.022553
7.584000E-5,0.020911
7.585000E-5,0.019263
7.586000E-5,0.017645
7.587000E-5,0.016045
7.588000E-5,0.014445
7.589000E-5,0.012823
7.590000E-5,0.011214
7.591000E-5,0.009568
7.592000E-5,0.007883
7.593000E-5,0.006205
7.594000E-5,0.004558
7.595000E-5,0.002958
7.596000E-5,0.001341
7.597000E-5,-0.000296
7.598000E-5,-0.001873
7.599000E-5,-0.003409
7.600000E-5,-0.004955
7.601000E-5,-0.006465
7.602000E-5,-0.007873
7.603000E-5,-0.009231
7.604000E-5,-0.010617
7.605000E-5,-0.011985
7.606000E-5,-0.013284
7.607000E-5,-0.014543
7.608000E-5,-0.015769
7.609000E-5,-0.016910
7.610000E-5,-0.018004
7.611000E-5,-0.019102
7.612000E-5,-0.020136
7.613000E-5,-0.021122
7.614000E-5,-0.022053
7.615000E-5,-0.022930
7.616000E-5,-0.023796
7.617000E-5,-0.024586
7.618000E-5,-0.025301
7.619000E-5,-0.026001
7.620000E-5,-0.026684
7.621000E-5,-0.027337
7.622000E-5,-0.027923
7.623000E-5,-0.028415
7.624000E-5,-0.028817
7.625000E-5,-0.029187
7.626000E-5,-0.029577
7.627000E-5,-0.029950
7.628000E-5,-0.030170
7.629000E-5,-0.030256
7.630000E-5,-0.030392
7.631000E-5,-0.030512
7.632000E-5,-0.030480
7.633000E-5,-0.030409
7.634000E-5,-0.030379
7.635000E-5,-0.030239
7.636000E-5,-0.030072
7.637000E-5,-0.029886
7.638000E-5,-0.029574
7.639000E-5,-0.029207
7.640000E-5,-0.028780
7.641000E-5,-0.028324
7.642000E-5,-0.027833
7.643000E-5,-0.027311
7.644000E-5,-0.026701
7.645000E-5,-0.026044
7.646000E-5,-0.025400
7.647000E-5,-0.024725
7.648000E-5,-0.024066
7.649000E-5,-0.023409
7.650000E-5,-0.022660
7.651000E-5,-0.021755
7.652000E-5,-0.020807
7.653000E-5,-0.019947
7.654000E-5,-0.019102
7.655000E-5,-0.018251
7.656000E-5,-0.017362
7.657000E-5,-0.016399
7.658000E-5,-0.015426
7.659000E-5,-0.014429
7.660000E-5,-0.013439
7.661000E-5,-0.012451
7.662000E-5,-0.011394
7.663000E-5,-0.010330
7.664000E-5,-0.009297
7.665000E-5,-0.008238
7.666000E-5,-0.007191
7.667000E-5,-0.006179
7.668000E-5,-0.005137
7.669000E-5,-0.004155
7.670000E-5,-0.003216
7.671000E-5,-0.002208
7.672000E-5,-0.001241
7.673000E-5,-0.000300
7.674000E-5,0.000578
7.675000E-5,0.001429
7.676000E-5,0.002382
7.677000E-5,0.003290
7.678000E-5,0.004108
7.679000E-5,0.004947
7.680000E-5,0.005797
7.681000E-5,0.006629
7.682000E-5,0.007376
7.683000E-5,0.008091
7.684000E-5,0.008789
7.685000E-5,0.009440
7.686000E-5,0.010103
7.687000E-5,0.010689
7.688000E-5,0.011159
7.689000E-5,0.011623
7.690000E-5,0.012187
7.691000E-5,0.012754
7.692000E-5,0.013216
7.693000E-5,0.013612
7.694000E-5,0.013979
7.695000E-5,0.014397
7.696000E-5,0.014827
7.697000E-5,0.015104
7.698000E-5,0.015340
7.699000E-5,0.015601
7.700000E-5,0.015813
7.701000E-5,0.016043
7.702000E-5,0.016197
7.703000E-5,0.016292
7.704000E-5,0.016365
7.705000E-5,0.016374
7.706000E-5,0.016365
7.707000E-5,0.016309
7.708000E-5,0.016187
7.709000E-5,0.016052
7.710000E-5,0.015890
7.711000E-5,0.015723
7.712000E-5,0.015553
7.713000E-5,0.015336
7.714000E-5,0.015053
7.715000E-5,0.014665
7.716000E-5,0.014254
7.717000E-5,0.013815
7.718000E-5,0.013392
7.719000E-5,0.012993
7.720000E-5,0.012488
7.721000E-5,0.011869
7.722000E-5,0.011289
7.723000E-5,0.010750
7.724000E-5,0.010142
7.725000E-5,0.009513
7.726000E-5,0.008892
7.727000E-5,0.008216
7.728000E-5,0.007516
7.729000E-5,0.006846
7.730000E-5,0.006111
7.731000E-5,0.005329
7.732000E-5,0.004511
7.733000E-5,0.003581
7.734000E-5,0.002580
7.735000E-5,0.001540
7.736000E-5,0.000465
7.737000E-5,-0.000699
7.738000E-5,-0.001890
7.739000E-5,-0.003027
7.740000E-5,-0.004218
7.741000E-5,-0.005436
7.742000E-5,-0.006672
7.743000E-5,-0.007923
7.744000E-5,-0.009137
7.745000E-5,-0.010378
7.746000E-5,-0.011649
7.747000E-5,-0.012927
7.748000E-5,-0.014230
7.749000E-5,-0.015534
7.750000E-5,-0.016880
7.751000E-5,-0.018249
7.752000E-5,-0.019633
7.753000E-5,-0.021006
7.754000E-5,-0.022303
7.755000E-5,-0.023610
7.756000E-5,-0.024904
7.757000E-5,-0.026154
7.758000E-5,-0.027310
7.759000E-5,-0.028416
7.760000E-5,-0.029559
7.761000E-5,-0.030650
7.762000E-5,-0.031731
7.763000E-5,-0.032801
7.764000E-5,-0.033888
7.765000E-5,-0.035018
7.766000E-5,-0.036080
7.767000E-5,-0.037125
7.768000E-5,-0.038153
7.769000E-5,-0.039190
7.770000E-5,-0.040257
7.771000E-5,-0.041208
7.772000E-5,-0.042102
7.773000E-5,-0.042962
7.774000E-5,-0.043774
7.775000E-5,-0.044595
7.776000E-5,-0.045430
7.777000E-5,-0.046286
7.778000E-5,-0.047088
7.779000E-5,-0.047801
7.780000E-5,-0.048507
7.781000E-5,-0.049176
7.782000E-5,-0.049744
7.783000E-5,-0.050206
7.784000E-5,-0.050603
7.785000E-5,-0.050970
7.786000E-5,-0.051266
7.787000E-5,-0.051514
7.788000E-5,-0.051717
7.789000E-5,-0.051874
7.790000E-5,-0.052002
7.791000E-5,-0.052138
7.792000E-5,-0.052252
7.793000E-5,-0.052338
7.794000E-5,-0.052368
7.795000E-5,-0.052330
7.796000E-5,-0.052284
7.797000E-5,-0.052223
7.798000E-5,-0.052154
7.799000E-5,-0.052036
7.800000E-5,-0.051876
7.801000E-5,-0.051707
7.802000E-5,-0.051471
7.803000E-5,-0.051150
7.804000E-5,-0.050789
7.805000E-5,-0.050371
7.806000E-5,-0.049926
7.807000E-5,-0.049483
7.808000E-5,-0.048988
7.809000E-5,-0.048378
7.810000E-5,-0.047759
7.811000E-5,-0.047145
7.812000E-5,-0.046460
7.813000E-5,-0.045792
7.814000E-5,-0.045142
7.815000E-5,-0.044460
7.816000E-5,-0.043714
7.817000E-5,-0.042977
7.818000E-5,-0.042272
7.819000E-5,-0.041535
7.820000E-5,-0.040782
7.821000E-5,-0.040059
7.822000E-5,-0.039385
7.823000E-5,-0.038632
7.824000E-5,-0.037791
7.825000E-5,-0.036986
7.826000E-5,-0.036225
7.827000E-5,-0.035414
7.828000E-5,-0.034572
7.829000E-5,-0.033736
7.830000E-5,-0.032856
7.831000E-5,-0.031995
7.832000E-5,-0.031137
7.833000E-5,-0.030283
7.834000E-5,-0.029450
7.835000E-5,-0.028581
7.836000E-5,-0.027650
7.837000E-5,-0.026725
7.838000E-5,-0.025835
7.839000E-5,-0.024874
7.840000E-5,-0.023846
7.841000E-5,-0.022826
7.842000E-5,-0.021851
7.843000E-5,-0.020850
7.844000E-5,-0.019825
7.845000E-5,-0.018857
7.846000E-5,-0.017917
7.847000E-5,-0.016935
7.848000E-5,-0.015905
7.849000E-5,-0.014846
7.850000E-5,-0.013760
7.851000E-5,-0.012693
7.852000E-5,-0.011639
7.853000E-5,-0.010599
7.854000E-5,-0.009616
7.855000E-5,-0.008627
7.856000E-5,-0.007610
7.857000E-5,-0.006620
7.858000E-5,-0.005649
7.859000E-5,-0.004669
7.860000E-5,-0.003640
7.861000E-5,-0.002607
7.862000E-5,-0.001573
7.863000E-5,-0.000490
7.864000E-5,0.000533
7.865000E-5,0.001525
7.866000E-5,0.002520
7.867000E-5,0.003524
7.868000E-5,0.004586
7.869000E-5,0.005644
7.870000E-5,0.006761
7.871000E-5,0.007862
7.872000E-5,0.008882
7.873000E-5,0.009892
7.874000E-5,0.010886
7.875000E-5,0.011912
7.876000E-5,0.012945
7.877000E-5,0.013949
7.878000E-5,0.014973
7.879000E-5,0.016006
7.880000E-5,0.017048
7.881000E-5,0.018082
7.882000E-5,0.019057
7.883000E-5,0.019988
7.884000E-5,0.020875
7.885000E-5,0.021753
7.886000E-5,0.022594
7.887000E-5,0.023405
7.888000E-5,0.024234
7.889000E-5,0.025010
7.890000E-5,0.025768
7.891000E-5,0.026487
7.892000E-5,0.027188
7.893000E-5,0.027957
7.894000E-5,0.028696
7.895000E-5,0.029414
7.896000E-5,0.030124
7.897000E-5,0.030810
7.898000E-5,0.031495
7.899000E-5,0.032170
7.900000E-5,0.032842
7.901000E-5,0.033480
7.902000E-5,0.034057
7.903000E-5,0.034610
7.904000E-5,0.035196
7.905000E-5,0.035792
7.906000E-5,0.036338
7.907000E-5,0.036772
7.908000E-5,0.037105
7.909000E-5,0.037403
7.910000E-5,0.037725
7.911000E-5,0.038020
7.912000E-5,0.038194
7.913000E-5,0.038318
7.914000E-5,0.038449
7.915000E-5,0.038579
7.916000E-5,0.038631
7.917000E-5,0.038635
7.918000E-5,0.038672
7.919000E-5,0.038719
7.920000E-5,0.038768
7.921000E-5,0.038805
7.922000E-5,0.038817
7.923000E-5,0.038832
7.924000E-5,0.038858
7.925000E-5,0.038886
7.926000E-5,0.038882
7.927000E-5,0.038882
7.928000E-5,0.038893
7.929000E-5,0.038872
7.930000E-5,0.038835
7.931000E-5,0.038724
7.932000E-5,0.038657
7.933000E-5,0.038618
7.934000E-5,0.038471
7.935000E-5,0.038285
7.936000E-5,0.038081
7.937000E-5,0.037911
7.938000E-5,0.037704
7.939000E-5,0.037409
7.940000E-5,0.037111
7.941000E-5,0.036830
7.942000E-5,0.036553
7.943000E-5,0.036200
7.944000E-5,0.035819
7.945000E-5,0.035439
7.946000E-5,0.035033
7.947000E-5,0.034666
7.948000E-5,0.034244
7.949000E-5,0.033749
7.950000E-5,0.033256
7.951000E-5,0.032772
7.952000E-5,0.032292
7.953000E-5,0.031757
7.954000E-5,0.031193
7.955000E-5,0.030695
7.956000E-5,0.030195
7.957000E-5,0.029597
7.958000E-5,0.029017
7.959000E-5,0.028449
7.960000E-5,0.027851
7.961000E-5,0.027268
7.962000E-5,0.026636
7.963000E-5,0.025978
7.964000E-5,0.025333
7.965000E-5,0.024680
7.966000E-5,0.024020
7.967000E-5,0.023269
7.968000E-5,0.022559
7.969000E-5,0.021933
7.970000E-5,0.021354
7.971000E-5,0.020777
7.972000E-5,0.020118
7.973000E-5,0.019431
7.974000E-5,0.018753
7.975000E-5,0.018115
7.976000E-5,0.017536
7.977000E-5,0.016901
7.978000E-5,0.016249
7.979000E-5,0.015625
7.980000E-5,0.015000
7.981000E-5,0.014417
7.982000E-5,0.013834
7.983000E-5,0.013257
7.984000E-5,0.012689
7.985000E-5,0.012158
7.986000E-5,0.011649
7.987000E-5,0.011169
7.988000E-5,0.010726
7.989000E-5,0.010275
7.990000E-5,0.009803
7.991000E-5,0.009355
7.992000E-5,0.008917
7.993000E-5,0.008459
7.994000E-5,0.008027
7.995000E-5,0.007648
7.996000E-5,0.007314
7.997000E-5,0.006945
7.998000E-5,0.006565
7.999000E-5,0.006225

